DataPoint,UnixTime,SessionTime,Wheel_RPM_Left,Wheel_RPM_Right,Stroke1_mm,Stroke2_mm,I_SENSE(A),TMP(C),APPS(%),BPPS(%),AMS_OK,IMD_OK,HV_ON,BSPD_OK,GPS_Lat,GPS_Lng,GPS_Age,GPS_Course,GPS_Speed,IMU_AccelX,IMU_AccelY,IMU_AccelZ,IMU_GyroX,IMU_GyroY,IMU_GyroZ,BAMOVolt(V),BAMOAmp(A),BAMOPower(W),MotorTemp(C),BAMOTemp(C)
2,1000000000000,2632,11094.00,0.00,31.87,0.00,0.00,0.00,0.00,0.00,0,0,0,0,0.0000,0.0000,0.00,0.00,0.00,0.000,0.000,0.000,0.000,0.000,0.000,0.00,0.00,0.00,0.0,0.0,
3,1768207048200,2832,1740.00,0.00,31.58,62.77,0.00,0.00,0.00,0.00,0,0,0,0,0.0000,0.0000,0.00,0.00,0.00,0.000,0.000,0.000,0.000,0.000,0.000,0.00,0.00,0.00,0.0,0.0,
4,1768207048400,3032,822.00,0.00,31.74,0.00,0.00,0.00,0.00,0.00,0,0,0,0,0.0000,0.0000,0.00,0.00,0.00,0.000,0.000,0.000,0.000,0.000,0.000,0.00,0.00,0.00,0.0,0.0,
5,1768207049600,3232,1566.00,0.00,31.39,0.15,0.00,0.00,0.00,0.00,0,0,0,0,0.0000,0.0000,0.00,0.00,0.00,0.000,0.000,0.000,0.000,0.000,0.000,0.00,0.00,0.00,0.0,0.0,
6,1768207049800,3432,774.00,0.00,31.30,0.00,0.00,0.00,0.00,0.00,0,0,0,0,0.0000,0.0000,0.00,0.00,0.00,0.000,0.000,0.000,0.000,0.000,0.000,0.00,0.00,0.00,0.0,0.0,
7,1768207050000,3632,732.00,0.00,31.47,0.00,0.00,0.00,0.00,0.00,0,0,0,0,0.0000,0.0000,0.00,0.00,0.00,0.000,0.000,0.000,0.000,0.000,0.000,0.00,0.00,0.00,0.0,0.0,
8,1768207050200,3832,786.00,0.00,31.34,0.05,0.00,0.00,0.00,0.00,0,0,0,0,0.0000,0.0000,0.00,0.00,0.00,0.000,0.000,0.000,0.000,0.000,0.000,0.00,0.00,0.00,0.0,0.0,
9,1768207050400,4032,684.00,0.00,31.63,0.00,0.00,0.00,0.00,0.00,0,0,0,0,0.0000,0.0000,0.00,0.00,0.00,0.000,0.000,0.000,0.000,0.000,0.000,0.00,0.00,0.00,0.0,0.0,
10,1768207051600,4232,900.00,0.00,31.89,0.71,0.00,0.00,0.00,0.00,0,0,0,0,0.0000,0.0000,0.00,0.00,0.00,0.000,0.000,0.000,0.000,0.000,0.000,0.00,0.00,0.00,0.0,0.0,
11,1768207051800,4432,834.00,0.00,31.26,0.29,0.00,0.00,0.00,0.00,0,0,0,0,0.0000,0.0000,0.00,0.00,0.00,0.000,0.000,0.000,0.000,0.000,0.000,0.00,0.00,0.00,0.0,0.0,
12,1768207052000,4632,1086.00,0.00,31.63,0.09,0.00,0.00,0.00,0.00,0,0,0,0,0.0000,0.0000,0.00,0.00,0.00,0.000,0.000,0.000,0.000,0.000,0.000,0.00,0.00,0.00,0.0,0.0,
13,1768207052200,4832,990.00,0.00,31.30,0.00,0.00,0.00,0.00,0.00,0,0,0,0,0.0000,0.0000,0.00,0.00,0.00,0.000,0.000,0.000,0.000,0.000,0.000,0.00,0.00,0.00,0.0,0.0,
14,1768207052400,5032,972.00,0.00,32.11,0.00,0.00,0.00,0.00,0.00,0,0,0,0,0.0000,0.0000,0.00,0.00,0.00,0.000,0.000,0.000,0.000,0.000,0.000,0.00,0.00,0.00,0.0,0.0,
15,1768207053600,5232,912.00,0.00,31.58,0.00,0.00,0.00,0.00,0.00,0,0,0,0,0.0000,0.0000,0.00,0.00,0.00,0.000,0.000,0.000,0.000,0.000,0.000,0.00,0.00,0.00,0.0,0.0,
16,1768207053800,5432,966.00,0.00,32.66,0.00,0.00,0.00,0.00,0.00,0,0,0,0,0.0000,0.0000,0.00,0.00,0.00,0.000,0.000,0.000,0.000,0.000,0.000,0.00,0.00,0.00,0.0,0.0,
17,1768207054000,5632,960.00,0.00,31.90,0.00,0.00,0.00,0.00,0.00,0,0,0,0,0.0000,0.0000,0.00,0.00,0.00,0.000,0.000,0.000,0.000,0.000,0.000,0.00,0.00,0.00,0.0,0.0,
18,1768207054200,5832,984.00,0.00,31.56,0.00,0.00,0.00,0.00,0.00,0,0,0,0,0.0000,0.0000,0.00,0.00,0.00,0.000,0.000,0.000,0.000,0.000,0.000,0.00,0.00,0.00,0.0,0.0,
19,1768207054400,6032,1596.00,0.00,31.98,0.00,0.00,0.00,0.00,0.00,0,0,0,0,0.0000,0.0000,0.00,0.00,0.00,0.000,0.000,0.000,0.000,0.000,0.000,0.00,0.00,0.00,0.0,0.0,
20,1768207055600,6232,954.00,0.00,31.30,0.00,0.00,0.00,0.00,0.00,0,0,0,0,0.0000,0.0000,0.00,0.00,0.00,0.000,0.000,0.000,0.000,0.000,0.000,0.00,0.00,0.00,0.0,0.0,
21,1768207055800,6432,942.00,0.00,31.45,0.00,0.00,0.00,0.00,0.00,0,0,0,0,0.0000,0.0000,0.00,0.00,0.00,0.000,0.000,0.000,0.000,0.000,0.000,0.00,0.00,0.00,0.0,0.0,
22,1768207056000,6632,2208.00,0.00,31.85,0.00,0.00,0.00,0.00,0.00,0,0,0,0,0.0000,0.0000,0.00,0.00,0.00,0.000,0.000,0.000,0.000,0.000,0.000,0.00,0.00,0.00,0.0,0.0,
23,1768207056200,6832,1026.00,0.00,31.63,0.00,0.00,0.00,0.00,0.00,0,0,0,0,0.0000,0.0000,0.00,0.00,0.00,0.000,0.000,0.000,0.000,0.000,0.000,0.00,0.00,0.00,0.0,0.0,
24,1768207056400,7032,912.00,0.00,31.30,0.00,0.00,0.00,0.00,0.00,0,0,0,0,0.0000,0.0000,0.00,0.00,0.00,0.000,0.000,0.000,0.000,0.000,0.000,0.00,0.00,0.00,0.0,0.0,
25,1768207057600,7232,960.00,0.00,31.45,0.02,0.00,0.00,0.00,0.00,0,0,0,0,0.0000,0.0000,0.00,0.00,0.00,0.000,0.000,0.000,0.000,0.000,0.000,0.00,0.00,0.00,0.0,0.0,
26,1768207057800,7432,1044.00,0.00,31.48,0.13,0.00,0.00,0.00,0.00,0,0,0,0,0.0000,0.0000,0.00,0.00,0.00,0.000,0.000,0.000,0.000,0.000,0.000,0.00,0.00,0.00,0.0,0.0,
27,1768207058000,7632,912.00,0.00,31.59,0.00,0.00,0.00,0.00,0.00,0,0,0,0,0.0000,0.0000,0.00,0.00,0.00,0.000,0.000,0.000,0.000,0.000,0.000,0.00,0.00,0.00,0.0,0.0,
28,1768207058200,7832,390.00,0.00,30.92,47.05,0.00,0.00,0.00,0.00,0,0,0,0,0.0000,0.0000,0.00,0.00,0.00,0.000,0.000,0.000,0.000,0.000,0.000,0.00,0.00,0.00,0.0,0.0,
29,1768207058400,8032,738.00,0.00,31.74,0.00,0.00,0.00,0.00,0.00,0,0,0,0,0.0000,0.0000,0.00,0.00,0.00,0.000,0.000,0.000,0.000,0.000,0.000,0.00,0.00,0.00,0.0,0.0,
30,1768207059600,8232,558.00,0.00,31.81,0.04,0.00,0.00,0.00,0.00,0,0,0,0,0.0000,0.0000,0.00,0.00,0.00,0.000,0.000,0.000,0.000,0.000,0.000,0.00,0.00,0.00,0.0,0.0,
31,1768207059800,8432,432.00,0.00,31.74,0.00,0.00,0.00,0.00,0.00,0,0,0,0,0.0000,0.0000,0.00,0.00,0.00,0.000,0.000,0.000,0.000,0.000,0.000,0.00,0.00,0.00,0.0,0.0,
32,1768207060000,8632,366.00,0.00,31.85,0.00,0.00,0.00,0.00,0.00,0,0,0,0,0.0000,0.0000,0.00,0.00,0.00,0.000,0.000,0.000,0.000,0.000,0.000,0.00,0.00,0.00,0.0,0.0,
33,1768207060200,8832,534.00,0.00,32.05,0.02,0.00,0.00,0.00,0.00,0,0,0,0,0.0000,0.0000,0.00,0.00,0.00,0.000,0.000,0.000,0.000,0.000,0.000,0.00,0.00,0.00,0.0,0.0,
34,1768207060400,9032,300.00,0.00,31.85,0.00,0.00,0.00,0.00,0.00,0,0,0,0,0.0000,0.0000,0.00,0.00,0.00,0.000,0.000,0.000,0.000,0.000,0.000,0.00,0.00,0.00,0.0,0.0,
35,1768207061600,9232,258.00,0.00,31.63,0.00,0.00,0.00,0.00,0.00,0,0,0,0,0.0000,0.0000,0.00,0.00,0.00,0.000,0.000,0.000,0.000,0.000,0.000,0.00,0.00,0.00,0.0,0.0,
36,1768207061800,9432,372.00,0.00,31.85,0.00,0.00,0.00,0.00,0.00,0,0,0,0,0.0000,0.0000,0.00,0.00,0.00,0.000,0.000,0.000,0.000,0.000,0.000,0.00,0.00,0.00,0.0,0.0,
37,1768207062000,9632,234.00,0.00,31.89,0.11,0.00,0.00,0.00,0.00,0,0,0,0,0.0000,0.0000,0.00,0.00,0.00,0.000,0.000,0.000,0.000,0.000,0.000,0.00,0.00,0.00,0.0,0.0,
38,1768207062200,9832,384.00,0.00,32.14,0.88,0.00,0.00,0.00,0.00,0,0,0,0,0.0000,0.0000,0.00,0.00,0.00,0.000,0.000,0.000,0.000,0.000,0.000,0.00,0.00,0.00,0.0,0.0,
39,1768207062400,10032,474.00,0.00,31.90,0.00,0.00,0.00,0.00,0.00,0,0,0,0,0.0000,0.0000,0.00,0.00,0.00,0.000,0.000,0.000,0.000,0.000,0.000,0.00,0.00,0.00,0.0,0.0,
40,1768207063600,10232,348.00,0.00,32.18,0.00,0.00,0.00,0.00,0.00,0,0,0,0,0.0000,0.0000,0.00,0.00,0.00,0.000,0.000,0.000,0.000,0.000,0.000,0.00,0.00,0.00,0.0,0.0,
41,1768207063800,10432,432.00,0.00,31.52,0.35,0.00,0.00,0.00,0.00,0,0,0,0,0.0000,0.0000,0.00,0.00,0.00,0.000,0.000,0.000,0.000,0.000,0.000,0.00,0.00,0.00,0.0,0.0,
42,1768207064000,10632,300.00,0.00,31.74,0.00,0.00,0.00,0.00,0.00,0,0,0,0,0.0000,0.0000,0.00,0.00,0.00,0.000,0.000,0.000,0.000,0.000,0.000,0.00,0.00,0.00,0.0,0.0,
43,1768207064200,10832,696.00,0.00,32.34,0.00,0.00,0.00,0.00,0.00,0,0,0,0,0.0000,0.0000,0.00,0.00,0.00,0.000,0.000,0.000,0.000,0.000,0.000,0.00,0.00,0.00,0.0,0.0,
44,1768207064400,11032,594.00,0.00,31.98,0.33,0.00,0.00,0.00,0.00,0,0,0,0,0.0000,0.0000,0.00,0.00,0.00,0.000,0.000,0.000,0.000,0.000,0.000,0.00,0.00,0.00,0.0,0.0,
45,1768207065600,11232,408.00,0.00,31.87,0.00,0.00,0.00,0.00,0.00,0,0,0,0,0.0000,0.0000,0.00,0.00,0.00,0.000,0.000,0.000,0.000,0.000,0.000,0.00,0.00,0.00,0.0,0.0,
46,1768207065800,11432,486.00,0.00,31.87,0.00,0.00,0.00,0.00,0.00,0,0,0,0,0.0000,0.0000,0.00,0.00,0.00,0.000,0.000,0.000,0.000,0.000,0.000,0.00,0.00,0.00,0.0,0.0,
47,1768207066000,11632,330.00,0.00,32.11,0.00,0.00,0.00,0.00,0.00,0,0,0,0,0.0000,0.0000,0.00,0.00,0.00,0.000,0.000,0.000,0.000,0.000,0.000,0.00,0.00,0.00,0.0,0.0,
48,1768207066200,11832,450.00,0.00,31.87,0.00,0.00,0.00,0.00,0.00,0,0,0,0,0.0000,0.0000,0.00,0.00,0.00,0.000,0.000,0.000,0.000,0.000,0.000,0.00,0.00,0.00,0.0,0.0,
49,9400,12032,5328.00,0.00,30.90,32.95,0.00,0.00,0.00,0.00,0,0,0,0,0.0000,0.0000,0.00,0.00,0.00,0.000,0.000,0.000,0.000,0.000,0.000,0.00,0.00,0.00,0.0,0.0,
50,9600,12232,990.00,0.00,31.47,62.97,0.00,0.00,0.00,0.00,0,0,0,0,0.0000,0.0000,0.00,0.00,0.00,0.000,0.000,0.000,0.000,0.000,0.000,0.00,0.00,0.00,0.0,0.0,
51,9800,12432,834.00,0.00,31.12,31.85,0.00,0.00,0.00,0.00,0,0,0,0,0.0000,0.0000,0.00,0.00,0.00,0.000,0.000,0.000,0.000,0.000,0.000,0.00,0.00,0.00,0.0,0.0,
52,10000,12632,708.00,0.00,31.30,49.58,0.00,0.00,0.00,0.00,0,0,0,0,0.0000,0.0000,0.00,0.00,0.00,0.000,0.000,0.000,0.000,0.000,0.000,0.00,0.00,0.00,0.0,0.0,
53,10200,12832,936.00,0.00,31.04,45.16,0.00,0.00,0.00,0.00,0,0,0,0,0.0000,0.0000,0.00,0.00,0.00,0.000,0.000,0.000,0.000,0.000,0.000,0.00,0.00,0.00,0.0,0.0,
54,10400,13032,942.00,0.00,31.74,70.27,0.00,0.00,0.00,0.00,0,0,0,0,0.0000,0.0000,0.00,0.00,0.00,0.000,0.000,0.000,0.000,0.000,0.000,0.00,0.00,0.00,0.0,0.0,
55,10600,13232,780.00,0.00,32.58,59.10,0.00,0.00,0.00,0.00,0,0,0,0,0.0000,0.0000,0.00,0.00,0.00,0.000,0.000,0.000,0.000,0.000,0.000,0.00,0.00,0.00,0.0,0.0,
56,10800,13432,684.00,0.00,30.99,51.48,0.00,0.00,0.00,0.00,0,0,0,0,0.0000,0.0000,0.00,0.00,0.00,0.000,0.000,0.000,0.000,0.000,0.000,0.00,0.00,0.00,0.0,0.0,
57,11000,13632,846.00,0.00,30.86,63.10,0.00,0.00,0.00,0.00,0,0,0,0,0.0000,0.0000,0.00,0.00,0.00,0.000,0.000,0.000,0.000,0.000,0.000,0.00,0.00,0.00,0.0,0.0,
58,11200,13832,816.00,0.00,30.79,73.52,0.00,0.00,0.00,0.00,0,0,0,0,0.0000,0.0000,0.00,0.00,0.00,0.000,0.000,0.000,0.000,0.000,0.000,0.00,0.00,0.00,0.0,0.0,
59,11400,14032,618.00,0.00,30.38,27.44,0.00,0.00,0.00,0.00,0,0,0,0,0.0000,0.0000,0.00,0.00,0.00,0.000,0.000,0.000,0.000,0.000,0.000,0.00,0.00,0.00,0.0,0.0,
60,11600,14232,774.00,0.00,31.23,42.51,0.00,0.00,0.00,0.00,0,0,0,0,0.0000,0.0000,0.00,0.00,0.00,0.000,0.000,0.000,0.000,0.000,0.000,0.00,0.00,0.00,0.0,0.0,
61,11800,14432,888.00,0.00,31.63,54.43,0.00,0.00,0.00,0.00,0,0,0,0,0.0000,0.0000,0.00,0.00,0.00,0.000,0.000,0.000,0.000,0.000,0.000,0.00,0.00,0.00,0.0,0.0,
62,12000,14632,828.00,0.00,30.88,70.22,0.00,0.00,0.00,0.00,0,0,0,0,0.0000,0.0000,0.00,0.00,0.00,0.000,0.000,0.000,0.000,0.000,0.000,0.00,0.00,0.00,0.0,0.0,
63,12200,14832,792.00,0.00,30.71,35.48,0.00,0.00,0.00,0.00,0,0,0,0,0.0000,0.0000,0.00,0.00,0.00,0.000,0.000,0.000,0.000,0.000,0.000,0.00,0.00,0.00,0.0,0.0,
64,12400,15032,984.00,0.00,31.90,21.74,0.00,0.00,0.00,0.00,0,0,0,0,0.0000,0.0000,0.00,0.00,0.00,0.000,0.000,0.000,0.000,0.000,0.000,0.00,0.00,0.00,0.0,0.0,
65,1768207073600,15232,3636.00,0.00,32.34,0.00,0.00,0.00,0.00,0.00,0,0,0,0,0.0000,0.0000,0.00,0.00,0.00,0.000,0.000,0.000,0.000,0.000,0.000,0.00,0.00,0.00,0.0,0.0,
66,1768207073800,15432,378.00,0.00,31.06,0.70,0.00,0.00,0.00,0.00,0,0,0,0,0.0000,0.0000,0.00,0.00,0.00,0.000,0.000,0.000,0.000,0.000,0.000,0.00,0.00,0.00,0.0,0.0,
67,1768207074000,15632,588.00,0.00,32.01,0.00,0.00,0.00,0.00,0.00,0,0,0,0,0.0000,0.0000,0.00,0.00,0.00,0.000,0.000,0.000,0.000,0.000,0.000,0.00,0.00,0.00,0.0,0.0,
68,1768207074200,15832,504.00,0.00,31.79,0.16,0.00,0.00,0.00,0.00,0,0,0,0,0.0000,0.0000,0.00,0.00,0.00,0.000,0.000,0.000,0.000,0.000,0.000,0.00,0.00,0.00,0.0,0.0,
69,1768207074400,16032,576.00,0.00,31.81,0.00,0.00,0.00,0.00,0.00,0,0,0,0,0.0000,0.0000,0.00,0.00,0.00,0.000,0.000,0.000,0.000,0.000,0.000,0.00,0.00,0.00,0.0,0.0,
70,1768207075600,16232,618.00,0.00,31.74,0.00,0.00,0.00,0.00,0.00,0,0,0,0,0.0000,0.0000,0.00,0.00,0.00,0.000,0.000,0.000,0.000,0.000,0.000,0.00,0.00,0.00,0.0,0.0,
71,1768207075800,16432,672.00,0.00,32.01,0.00,0.00,0.00,0.00,0.00,0,0,0,0,0.0000,0.0000,0.00,0.00,0.00,0.000,0.000,0.000,0.000,0.000,0.000,0.00,0.00,0.00,0.0,0.0,
72,1768207076000,16632,576.00,0.00,32.20,0.00,0.00,0.00,0.00,0.00,0,0,0,0,0.0000,0.0000,0.00,0.00,0.00,0.000,0.000,0.000,0.000,0.000,0.000,0.00,0.00,0.00,0.0,0.0,
73,1768207076200,16832,516.00,0.00,32.11,0.00,0.00,0.00,0.00,0.00,0,0,0,0,0.0000,0.0000,0.00,0.00,0.00,0.000,0.000,0.000,0.000,0.000,0.000,0.00,0.00,0.00,0.0,0.0,
74,1768207076400,17032,1116.00,0.00,32.03,0.04,0.00,0.00,0.00,0.00,0,0,0,0,0.0000,0.0000,0.00,0.00,0.00,0.000,0.000,0.000,0.000,0.000,0.000,0.00,0.00,0.00,0.0,0.0,
75,1768207077600,17232,684.00,0.00,31.79,0.04,0.00,0.00,0.00,0.00,0,0,0,0,0.0000,0.0000,0.00,0.00,0.00,0.000,0.000,0.000,0.000,0.000,0.000,0.00,0.00,0.00,0.0,0.0,
76,1768207077800,17432,804.00,0.00,31.92,0.09,0.00,0.00,0.00,0.00,0,0,0,0,0.0000,0.0000,0.00,0.00,0.00,0.000,0.000,0.000,0.000,0.000,0.000,0.00,0.00,0.00,0.0,0.0,
77,1768207078000,17632,588.00,0.00,31.79,0.18,0.00,0.00,0.00,0.00,0,0,0,0,0.0000,0.0000,0.00,0.00,0.00,0.000,0.000,0.000,0.000,0.000,0.000,0.00,0.00,0.00,0.0,0.0,
78,1768207078200,17832,504.00,0.00,32.29,0.00,0.00,0.00,0.00,0.00,0,0,0,0,0.0000,0.0000,0.00,0.00,0.00,0.000,0.000,0.000,0.000,0.000,0.000,0.00,0.00,0.00,0.0,0.0,
79,1768207078400,18032,84.00,0.00,32.18,0.00,0.00,0.00,0.00,0.00,0,0,0,0,0.0000,0.0000,0.00,0.00,0.00,0.000,0.000,0.000,0.000,0.000,0.000,0.00,0.00,0.00,0.0,0.0,
80,1768207079600,18232,78.00,0.00,32.62,0.00,0.00,0.00,0.00,0.00,0,0,0,0,0.0000,0.0000,0.00,0.00,0.00,0.000,0.000,0.000,0.000,0.000,0.000,0.00,0.00,0.00,0.0,0.0,
81,1768207079800,18432,48.00,0.00,31.63,0.16,0.00,0.00,0.00,0.00,0,0,0,0,0.0000,0.0000,0.00,0.00,0.00,0.000,0.000,0.000,0.000,0.000,0.000,0.00,0.00,0.00,0.0,0.0,
82,1768207080000,18632,48.00,0.00,32.11,0.00,0.00,0.00,0.00,0.00,0,0,0,0,0.0000,0.0000,0.00,0.00,0.00,0.000,0.000,0.000,0.000,0.000,0.000,0.00,0.00,0.00,0.0,0.0,
83,1768207080200,18832,78.00,0.00,31.81,0.00,0.00,0.00,0.00,0.00,0,0,0,0,0.0000,0.0000,0.00,0.00,0.00,0.000,0.000,0.000,0.000,0.000,0.000,0.00,0.00,0.00,0.0,0.0,
84,1768207080400,19032,66.00,0.00,31.96,0.00,0.00,0.00,0.00,0.00,0,0,0,0,0.0000,0.0000,0.00,0.00,0.00,0.000,0.000,0.000,0.000,0.000,0.000,0.00,0.00,0.00,0.0,0.0,
85,1768207081600,19232,78.00,0.00,32.00,0.00,0.00,0.00,0.00,0.00,0,0,0,0,0.0000,0.0000,0.00,0.00,0.00,0.000,0.000,0.000,0.000,0.000,0.000,0.00,0.00,0.00,0.0,0.0,
86,1768207081800,19432,48.00,0.00,31.54,0.00,0.00,0.00,0.00,0.00,0,0,0,0,0.0000,0.0000,0.00,0.00,0.00,0.000,0.000,0.000,0.000,0.000,0.000,0.00,0.00,0.00,0.0,0.0,
87,1768207082000,19632,42.00,0.00,32.09,0.00,0.00,0.00,0.00,0.00,0,0,0,0,0.0000,0.0000,0.00,0.00,0.00,0.000,0.000,0.000,0.000,0.000,0.000,0.00,0.00,0.00,0.0,0.0,
88,1768207082200,19832,30.00,0.00,32.01,0.09,0.00,0.00,0.00,0.00,0,0,0,0,0.0000,0.0000,0.00,0.00,0.00,0.000,0.000,0.000,0.000,0.000,0.000,0.00,0.00,0.00,0.0,0.0,
89,1768207082400,20032,66.00,0.00,32.14,0.00,0.00,0.00,0.00,0.00,0,0,0,0,0.0000,0.0000,0.00,0.00,0.00,0.000,0.000,0.000,0.000,0.000,0.000,0.00,0.00,0.00,0.0,0.0,
90,1768207083600,20232,60.00,0.00,31.56,0.00,0.00,0.00,0.00,0.00,0,0,0,0,0.0000,0.0000,0.00,0.00,0.00,0.000,0.000,0.000,0.000,0.000,0.000,0.00,0.00,0.00,0.0,0.0,
91,1768207083800,20432,60.00,0.00,31.01,40.40,0.00,0.00,0.00,0.00,0,0,0,0,0.0000,0.0000,0.00,0.00,0.00,0.000,0.000,0.000,0.000,0.000,0.000,0.00,0.00,0.00,0.0,0.0,
92,1768207084000,20632,54.00,0.00,32.14,0.00,0.00,0.00,0.00,0.00,0,0,0,0,0.0000,0.0000,0.00,0.00,0.00,0.000,0.000,0.000,0.000,0.000,0.000,0.00,0.00,0.00,0.0,0.0,
93,1768207084200,20832,72.00,0.00,32.36,0.00,0.00,0.00,0.00,0.00,0,0,0,0,0.0000,0.0000,0.00,0.00,0.00,0.000,0.000,0.000,0.000,0.000,0.000,0.00,0.00,0.00,0.0,0.0,
94,1768207084400,21032,48.00,0.00,31.63,0.16,0.00,0.00,0.00,0.00,0,0,0,0,0.0000,0.0000,0.00,0.00,0.00,0.000,0.000,0.000,0.000,0.000,0.000,0.00,0.00,0.00,0.0,0.0,
95,1768207085600,21232,48.00,0.00,31.89,0.31,0.00,0.00,0.00,0.00,0,0,0,0,0.0000,0.0000,0.00,0.00,0.00,0.000,0.000,0.000,0.000,0.000,0.000,0.00,0.00,0.00,0.0,0.0,
96,1768207085800,21432,12.00,0.00,31.63,0.09,0.00,0.00,0.00,0.00,0,0,0,0,0.0000,0.0000,0.00,0.00,0.00,0.000,0.000,0.000,0.000,0.000,0.000,0.00,0.00,0.00,0.0,0.0,
97,1768207086000,21632,54.00,0.00,31.65,1.78,0.00,0.00,0.00,0.00,0,0,0,0,0.0000,0.0000,0.00,0.00,0.00,0.000,0.000,0.000,0.000,0.000,0.000,0.00,0.00,0.00,0.0,0.0,
98,1768207086200,21832,72.00,0.00,31.89,0.00,0.00,0.00,0.00,0.00,0,0,0,0,0.0000,0.0000,0.00,0.00,0.00,0.000,0.000,0.000,0.000,0.000,0.000,0.00,0.00,0.00,0.0,0.0,
99,1768207086400,22032,60.00,0.00,32.03,0.00,0.00,0.00,0.00,0.00,0,0,0,0,0.0000,0.0000,0.00,0.00,0.00,0.000,0.000,0.000,0.000,0.000,0.000,0.00,0.00,0.00,0.0,0.0,
100,1768207087600,22232,36.00,0.00,32.09,0.07,0.00,0.00,0.00,0.00,0,0,0,0,0.0000,0.0000,0.00,0.00,0.00,0.000,0.000,0.000,0.000,0.000,0.000,0.00,0.00,0.00,0.0,0.0,
101,1768207087800,22432,30.00,0.00,31.90,0.00,0.00,0.00,0.00,0.00,0,0,0,0,0.0000,0.0000,0.00,0.00,0.00,0.000,0.000,0.000,0.000,0.000,0.000,0.00,0.00,0.00,0.0,0.0,
102,1768207088000,22632,54.00,0.00,31.76,0.00,0.00,0.00,0.00,0.00,0,0,0,0,0.0000,0.0000,0.00,0.00,0.00,0.000,0.000,0.000,0.000,0.000,0.000,0.00,0.00,0.00,0.0,0.0,
103,1768207088200,22832,78.00,0.00,31.85,0.00,0.00,0.00,0.00,0.00,0,0,0,0,0.0000,0.0000,0.00,0.00,0.00,0.000,0.000,0.000,0.000,0.000,0.000,0.00,0.00,0.00,0.0,0.0,
104,1768207088400,23032,66.00,0.00,32.07,0.02,0.00,0.00,0.00,0.00,0,0,0,0,0.0000,0.0000,0.00,0.00,0.00,0.000,0.000,0.000,0.000,0.000,0.000,0.00,0.00,0.00,0.0,0.0,
105,1768207089600,23232,72.00,0.00,31.79,0.09,0.00,0.00,0.00,0.00,0,0,0,0,0.0000,0.0000,0.00,0.00,0.00,0.000,0.000,0.000,0.000,0.000,0.000,0.00,0.00,0.00,0.0,0.0,
106,1768207089800,23432,48.00,0.00,31.98,0.00,0.00,0.00,0.00,0.00,0,0,0,0,0.0000,0.0000,0.00,0.00,0.00,0.000,0.000,0.000,0.000,0.000,0.000,0.00,0.00,0.00,0.0,0.0,
107,1768207090000,23632,42.00,0.00,31.52,0.05,0.00,0.00,0.00,0.00,0,0,0,0,0.0000,0.0000,0.00,0.00,0.00,0.000,0.000,0.000,0.000,0.000,0.000,0.00,0.00,0.00,0.0,0.0,
108,1768207090200,23832,48.00,0.00,32.20,0.00,0.00,0.00,0.00,0.00,0,0,0,0,0.0000,0.0000,0.00,0.00,0.00,0.000,0.000,0.000,0.000,0.000,0.000,0.00,0.00,0.00,0.0,0.0,
109,1768207090400,24032,42.00,0.00,32.14,0.00,0.00,0.00,0.00,0.00,0,0,0,0,0.0000,0.0000,0.00,0.00,0.00,0.000,0.000,0.000,0.000,0.000,0.000,0.00,0.00,0.00,0.0,0.0,
110,1768207091600,24232,72.00,0.00,31.81,0.00,0.00,0.00,0.00,0.00,0,0,0,0,0.0000,0.0000,0.00,0.00,0.00,0.000,0.000,0.000,0.000,0.000,0.000,0.00,0.00,0.00,0.0,0.0,
111,1768207091800,24432,30.00,0.00,32.47,0.00,0.00,0.00,0.00,0.00,0,0,0,0,0.0000,0.0000,0.00,0.00,0.00,0.000,0.000,0.000,0.000,0.000,0.000,0.00,0.00,0.00,0.0,0.0,
112,1768207092000,24632,72.00,0.00,31.76,0.22,0.00,0.00,0.00,0.00,0,0,0,0,0.0000,0.0000,0.00,0.00,0.00,0.000,0.000,0.000,0.000,0.000,0.000,0.00,0.00,0.00,0.0,0.0,
113,1768207092200,24832,42.00,0.00,31.89,0.00,0.00,0.00,0.00,0.00,0,0,0,0,0.0000,0.0000,0.00,0.00,0.00,0.000,0.000,0.000,0.000,0.000,0.000,0.00,0.00,0.00,0.0,0.0,
114,1768207092400,25032,66.00,0.00,32.03,0.00,0.00,0.00,0.00,0.00,0,0,0,0,0.0000,0.0000,0.00,0.00,0.00,0.000,0.000,0.000,0.000,0.000,0.000,0.00,0.00,0.00,0.0,0.0,
115,1768207093600,25232,66.00,0.00,31.85,0.11,0.00,0.00,0.00,0.00,0,0,0,0,0.0000,0.0000,0.00,0.00,0.00,0.000,0.000,0.000,0.000,0.000,0.000,0.00,0.00,0.00,0.0,0.0,
116,1768207093800,25432,60.00,0.00,31.79,0.00,0.00,0.00,0.00,0.00,0,0,0,0,0.0000,0.0000,0.00,0.00,0.00,0.000,0.000,0.000,0.000,0.000,0.000,0.00,0.00,0.00,0.0,0.0,
117,1768207094000,25632,60.00,0.00,32.11,0.00,0.00,0.00,0.00,0.00,0,0,0,0,0.0000,0.0000,0.00,0.00,0.00,0.000,0.000,0.000,0.000,0.000,0.000,0.00,0.00,0.00,0.0,0.0,
118,1768207094200,25832,36.00,0.00,32.18,0.00,0.00,0.00,0.00,0.00,0,0,0,0,0.0000,0.0000,0.00,0.00,0.00,0.000,0.000,0.000,0.000,0.000,0.000,0.00,0.00,0.00,0.0,0.0,
119,1768207094400,26032,36.00,0.00,31.85,0.05,0.00,0.00,0.00,0.00,0,0,0,0,0.0000,0.0000,0.00,0.00,0.00,0.000,0.000,0.000,0.000,0.000,0.000,0.00,0.00,0.00,0.0,0.0,
120,1768207095600,26232,36.00,0.00,31.76,0.00,0.00,0.00,0.00,0.00,0,0,0,0,0.0000,0.0000,0.00,0.00,0.00,0.000,0.000,0.000,0.000,0.000,0.000,0.00,0.00,0.00,0.0,0.0,
121,1768207095800,26432,42.00,0.00,31.65,0.51,0.00,0.00,0.00,0.00,0,0,0,0,0.0000,0.0000,0.00,0.00,0.00,0.000,0.000,0.000,0.000,0.000,0.000,0.00,0.00,0.00,0.0,0.0,
122,1768207096000,26632,30.00,0.00,32.09,0.00,0.00,0.00,0.00,0.00,0,0,0,0,0.0000,0.0000,0.00,0.00,0.00,0.000,0.000,0.000,0.000,0.000,0.000,0.00,0.00,0.00,0.0,0.0,
123,1768207096200,26832,36.00,0.00,31.90,0.00,0.00,0.00,0.00,0.00,0,0,0,0,0.0000,0.0000,0.00,0.00,0.00,0.000,0.000,0.000,0.000,0.000,0.000,0.00,0.00,0.00,0.0,0.0,
124,1768207096400,27032,54.00,0.00,32.22,0.00,0.00,0.00,0.00,0.00,0,0,0,0,0.0000,0.0000,0.00,0.00,0.00,0.000,0.000,0.000,0.000,0.000,0.000,0.00,0.00,0.00,0.0,0.0,
125,1768207097600,27232,78.00,0.00,31.48,0.00,0.00,0.00,0.00,0.00,0,0,0,0,0.0000,0.0000,0.00,0.00,0.00,0.000,0.000,0.000,0.000,0.000,0.000,0.00,0.00,0.00,0.0,0.0,
126,1768207097800,27432,36.00,0.00,31.81,0.20,0.00,0.00,0.00,0.00,0,0,0,0,0.0000,0.0000,0.00,0.00,0.00,0.000,0.000,0.000,0.000,0.000,0.000,0.00,0.00,0.00,0.0,0.0,
127,1768207098000,27632,36.00,0.00,31.63,0.00,0.00,0.00,0.00,0.00,0,0,0,0,0.0000,0.0000,0.00,0.00,0.00,0.000,0.000,0.000,0.000,0.000,0.000,0.00,0.00,0.00,0.0,0.0,
128,1768207098200,27832,54.00,0.00,32.16,0.00,0.00,0.00,0.00,0.00,0,0,0,0,0.0000,0.0000,0.00,0.00,0.00,0.000,0.000,0.000,0.000,0.000,0.000,0.00,0.00,0.00,0.0,0.0,
129,1768207098400,28032,54.00,0.00,32.07,0.00,0.00,0.00,0.00,0.00,0,0,0,0,0.0000,0.0000,0.00,0.00,0.00,0.000,0.000,0.000,0.000,0.000,0.000,0.00,0.00,0.00,0.0,0.0,
130,1768207099600,28232,24.00,0.00,32.01,0.00,0.00,0.00,0.00,0.00,0,0,0,0,0.0000,0.0000,0.00,0.00,0.00,0.000,0.000,0.000,0.000,0.000,0.000,0.00,0.00,0.00,0.0,0.0,
131,1768207099800,28432,36.00,0.00,31.81,0.00,0.00,0.00,0.00,0.00,0,0,0,0,0.0000,0.0000,0.00,0.00,0.00,0.000,0.000,0.000,0.000,0.000,0.000,0.00,0.00,0.00,0.0,0.0,
132,1768207100000,28632,30.00,0.00,31.15,34.65,0.00,0.00,0.00,0.00,0,0,0,0,0.0000,0.0000,0.00,0.00,0.00,0.000,0.000,0.000,0.000,0.000,0.000,0.00,0.00,0.00,0.0,0.0,
133,1768207100200,28832,132.00,0.00,31.79,0.00,0.00,0.00,0.00,0.00,0,0,0,0,0.0000,0.0000,0.00,0.00,0.00,0.000,0.000,0.000,0.000,0.000,0.000,0.00,0.00,0.00,0.0,0.0,
134,1768207100400,29032,48.00,0.00,31.89,0.20,0.00,0.00,0.00,0.00,0,0,0,0,0.0000,0.0000,0.00,0.00,0.00,0.000,0.000,0.000,0.000,0.000,0.000,0.00,0.00,0.00,0.0,0.0,
135,1768207101600,29232,30.00,0.00,31.92,0.00,0.00,0.00,0.00,0.00,0,0,0,0,0.0000,0.0000,0.00,0.00,0.00,0.000,0.000,0.000,0.000,0.000,0.000,0.00,0.00,0.00,0.0,0.0,
136,1768207101800,29432,24.00,0.00,32.11,0.00,0.00,0.00,0.00,0.00,0,0,0,0,0.0000,0.0000,0.00,0.00,0.00,0.000,0.000,0.000,0.000,0.000,0.000,0.00,0.00,0.00,0.0,0.0,
137,1768207102000,29632,6.00,0.00,31.89,0.05,0.00,0.00,0.00,0.00,0,0,0,0,0.0000,0.0000,0.00,0.00,0.00,0.000,0.000,0.000,0.000,0.000,0.000,0.00,0.00,0.00,0.0,0.0,
138,1768207102200,29832,36.00,0.00,31.56,0.02,0.00,0.00,0.00,0.00,0,0,0,0,0.0000,0.0000,0.00,0.00,0.00,0.000,0.000,0.000,0.000,0.000,0.000,0.00,0.00,0.00,0.0,0.0,
139,1768207102400,30032,42.00,0.00,31.78,7.22,0.00,0.00,0.00,0.00,0,0,0,0,0.0000,0.0000,0.00,0.00,0.00,0.000,0.000,0.000,0.000,0.000,0.000,0.00,0.00,0.00,0.0,0.0,
140,1768207103600,30232,30.00,0.00,30.97,6.79,0.00,0.00,0.00,0.00,0,0,0,0,0.0000,0.0000,0.00,0.00,0.00,0.000,0.000,0.000,0.000,0.000,0.000,0.00,0.00,0.00,0.0,0.0,
141,1768207103800,30432,24.00,0.00,31.90,0.00,0.00,0.00,0.00,0.00,0,0,0,0,0.0000,0.0000,0.00,0.00,0.00,0.000,0.000,0.000,0.000,0.000,0.000,0.00,0.00,0.00,0.0,0.0,
142,1768207104000,30632,42.00,0.00,31.85,0.00,0.00,0.00,0.00,0.00,0,0,0,0,0.0000,0.0000,0.00,0.00,0.00,0.000,0.000,0.000,0.000,0.000,0.000,0.00,0.00,0.00,0.0,0.0,
143,1768207104200,30832,30.00,0.00,31.81,0.00,0.00,0.00,0.00,0.00,0,0,0,0,0.0000,0.0000,0.00,0.00,0.00,0.000,0.000,0.000,0.000,0.000,0.000,0.00,0.00,0.00,0.0,0.0,
144,1768207104400,31032,42.00,0.00,31.81,0.04,0.00,0.00,0.00,0.00,0,0,0,0,0.0000,0.0000,0.00,0.00,0.00,0.000,0.000,0.000,0.000,0.000,0.000,0.00,0.00,0.00,0.0,0.0,
145,1768207105600,31232,36.00,0.00,32.03,0.00,0.00,0.00,0.00,0.00,0,0,0,0,0.0000,0.0000,0.00,0.00,0.00,0.000,0.000,0.000,0.000,0.000,0.000,0.00,0.00,0.00,0.0,0.0,
146,1768207105800,31432,60.00,0.00,31.79,0.00,0.00,0.00,0.00,0.00,0,0,0,0,0.0000,0.0000,0.00,0.00,0.00,0.000,0.000,0.000,0.000,0.000,0.000,0.00,0.00,0.00,0.0,0.0,
147,1768207106000,31632,42.00,0.00,32.00,0.00,0.00,0.00,0.00,0.00,0,0,0,0,0.0000,0.0000,0.00,0.00,0.00,0.000,0.000,0.000,0.000,0.000,0.000,0.00,0.00,0.00,0.0,0.0,
148,1768207106200,31832,30.00,0.00,32.40,0.00,0.00,0.00,0.00,0.00,0,0,0,0,0.0000,0.0000,0.00,0.00,0.00,0.000,0.000,0.000,0.000,0.000,0.000,0.00,0.00,0.00,0.0,0.0,
149,1768207106400,32032,48.00,0.00,31.81,0.00,0.00,0.00,0.00,0.00,0,0,0,0,0.0000,0.0000,0.00,0.00,0.00,0.000,0.000,0.000,0.000,0.000,0.000,0.00,0.00,0.00,0.0,0.0,
150,1768207107600,32232,48.00,0.00,31.87,0.02,0.00,0.00,0.00,0.00,0,0,0,0,0.0000,0.0000,0.00,0.00,0.00,0.000,0.000,0.000,0.000,0.000,0.000,0.00,0.00,0.00,0.0,0.0,
151,1768207107800,32432,48.00,0.00,32.40,0.00,0.00,0.00,0.00,0.00,0,0,0,0,0.0000,0.0000,0.00,0.00,0.00,0.000,0.000,0.000,0.000,0.000,0.000,0.00,0.00,0.00,0.0,0.0,
152,1768207108000,32632,36.00,0.00,31.58,0.00,0.00,0.00,0.00,0.00,0,0,0,0,0.0000,0.0000,0.00,0.00,0.00,0.000,0.000,0.000,0.000,0.000,0.000,0.00,0.00,0.00,0.0,0.0,
153,1768207108200,32832,36.00,0.00,31.78,0.00,0.00,0.00,0.00,0.00,0,0,0,0,0.0000,0.0000,0.00,0.00,0.00,0.000,0.000,0.000,0.000,0.000,0.000,0.00,0.00,0.00,0.0,0.0,
154,1768207108400,33032,30.00,0.00,32.18,0.00,0.00,0.00,0.00,0.00,0,0,0,0,0.0000,0.0000,0.00,0.00,0.00,0.000,0.000,0.000,0.000,0.000,0.000,0.00,0.00,0.00,0.0,0.0,
155,1768207109600,33232,48.00,0.00,32.03,0.00,0.00,0.00,0.00,0.00,0,0,0,0,0.0000,0.0000,0.00,0.00,0.00,0.000,0.000,0.000,0.000,0.000,0.000,0.00,0.00,0.00,0.0,0.0,
156,1768207109800,33432,48.00,0.00,32.36,0.00,0.00,0.00,0.00,0.00,0,0,0,0,0.0000,0.0000,0.00,0.00,0.00,0.000,0.000,0.000,0.000,0.000,0.000,0.00,0.00,0.00,0.0,0.0,
157,1768207110000,33632,54.00,0.00,31.48,0.35,0.00,0.00,0.00,0.00,0,0,0,0,0.0000,0.0000,0.00,0.00,0.00,0.000,0.000,0.000,0.000,0.000,0.000,0.00,0.00,0.00,0.0,0.0,
158,1768207110200,33832,60.00,0.00,32.00,0.00,0.00,0.00,0.00,0.00,0,0,0,0,0.0000,0.0000,0.00,0.00,0.00,0.000,0.000,0.000,0.000,0.000,0.000,0.00,0.00,0.00,0.0,0.0,
159,1768207110400,34032,54.00,0.00,31.98,0.15,0.00,0.00,0.00,0.00,0,0,0,0,0.0000,0.0000,0.00,0.00,0.00,0.000,0.000,0.000,0.000,0.000,0.000,0.00,0.00,0.00,0.0,0.0,
160,1768207111600,34232,18.00,0.00,32.00,0.00,0.00,0.00,0.00,0.00,0,0,0,0,0.0000,0.0000,0.00,0.00,0.00,0.000,0.000,0.000,0.000,0.000,0.000,0.00,0.00,0.00,0.0,0.0,
161,1768207111800,34432,30.00,0.00,32.51,0.00,0.00,0.00,0.00,0.00,0,0,0,0,0.0000,0.0000,0.00,0.00,0.00,0.000,0.000,0.000,0.000,0.000,0.000,0.00,0.00,0.00,0.0,0.0,
162,1768207112000,34632,54.00,0.00,32.03,0.00,0.00,0.00,0.00,0.00,0,0,0,0,0.0000,0.0000,0.00,0.00,0.00,0.000,0.000,0.000,0.000,0.000,0.000,0.00,0.00,0.00,0.0,0.0,
163,1768207112200,34832,36.00,0.00,32.31,0.00,0.00,0.00,0.00,0.00,0,0,0,0,0.0000,0.0000,0.00,0.00,0.00,0.000,0.000,0.000,0.000,0.000,0.000,0.00,0.00,0.00,0.0,0.0,
164,1768207112400,35032,24.00,0.00,31.58,0.31,0.00,0.00,0.00,0.00,0,0,0,0,0.0000,0.0000,0.00,0.00,0.00,0.000,0.000,0.000,0.000,0.000,0.000,0.00,0.00,0.00,0.0,0.0,
165,1768207113600,35232,36.00,0.00,32.40,0.00,0.00,0.00,0.00,0.00,0,0,0,0,0.0000,0.0000,0.00,0.00,0.00,0.000,0.000,0.000,0.000,0.000,0.000,0.00,0.00,0.00,0.0,0.0,
166,1768207113800,35432,48.00,0.00,32.01,0.00,0.00,0.00,0.00,0.00,0,0,0,0,0.0000,0.0000,0.00,0.00,0.00,0.000,0.000,0.000,0.000,0.000,0.000,0.00,0.00,0.00,0.0,0.0,
167,1768207114000,35632,24.00,0.00,31.78,0.00,0.00,0.00,0.00,0.00,0,0,0,0,0.0000,0.0000,0.00,0.00,0.00,0.000,0.000,0.000,0.000,0.000,0.000,0.00,0.00,0.00,0.0,0.0,
168,1768207114200,35832,54.00,0.00,31.85,0.00,0.00,0.00,0.00,0.00,0,0,0,0,0.0000,0.0000,0.00,0.00,0.00,0.000,0.000,0.000,0.000,0.000,0.000,0.00,0.00,0.00,0.0,0.0,
169,1768207114400,36032,30.00,0.00,31.83,0.00,0.00,0.00,0.00,0.00,0,0,0,0,0.0000,0.0000,0.00,0.00,0.00,0.000,0.000,0.000,0.000,0.000,0.000,0.00,0.00,0.00,0.0,0.0,
170,1768207115600,36232,60.00,0.00,31.63,0.00,0.00,0.00,0.00,0.00,0,0,0,0,0.0000,0.0000,0.00,0.00,0.00,0.000,0.000,0.000,0.000,0.000,0.000,0.00,0.00,0.00,0.0,0.0,
171,1768207115800,36432,30.00,0.00,32.44,0.00,0.00,0.00,0.00,0.00,0,0,0,0,0.0000,0.0000,0.00,0.00,0.00,0.000,0.000,0.000,0.000,0.000,0.000,0.00,0.00,0.00,0.0,0.0,
172,1768207116000,36632,42.00,0.00,32.47,0.00,0.00,0.00,0.00,0.00,0,0,0,0,0.0000,0.0000,0.00,0.00,0.00,0.000,0.000,0.000,0.000,0.000,0.000,0.00,0.00,0.00,0.0,0.0,
173,1768207116200,36832,66.00,0.00,31.81,0.00,0.00,0.00,0.00,0.00,0,0,0,0,0.0000,0.0000,0.00,0.00,0.00,0.000,0.000,0.000,0.000,0.000,0.000,0.00,0.00,0.00,0.0,0.0,
174,1768207116400,37032,66.00,0.00,31.85,0.00,0.00,0.00,0.00,0.00,0,0,0,0,0.0000,0.0000,0.00,0.00,0.00,0.000,0.000,0.000,0.000,0.000,0.000,0.00,0.00,0.00,0.0,0.0,
175,1768207117600,37232,48.00,0.00,31.89,0.00,0.00,0.00,0.00,0.00,0,0,0,0,0.0000,0.0000,0.00,0.00,0.00,0.000,0.000,0.000,0.000,0.000,0.000,0.00,0.00,0.00,0.0,0.0,
176,1768207117800,37432,18.00,0.00,31.79,0.04,0.00,0.00,0.00,0.00,0,0,0,0,0.0000,0.0000,0.00,0.00,0.00,0.000,0.000,0.000,0.000,0.000,0.000,0.00,0.00,0.00,0.0,0.0,
177,1768207118000,37632,42.00,0.00,31.90,0.00,0.00,0.00,0.00,0.00,0,0,0,0,0.0000,0.0000,0.00,0.00,0.00,0.000,0.000,0.000,0.000,0.000,0.000,0.00,0.00,0.00,0.0,0.0,
178,1768207118200,37832,0.00,0.00,31.79,0.00,0.00,0.00,0.00,0.00,0,0,0,0,0.0000,0.0000,0.00,0.00,0.00,0.000,0.000,0.000,0.000,0.000,0.000,0.00,0.00,0.00,0.0,0.0,
179,1768207118400,38032,30.00,0.00,31.81,0.00,0.00,0.00,0.00,0.00,0,0,0,0,0.0000,0.0000,0.00,0.00,0.00,0.000,0.000,0.000,0.000,0.000,0.000,0.00,0.00,0.00,0.0,0.0,
180,1768207119600,38232,48.00,0.00,32.01,0.00,0.00,0.00,0.00,0.00,0,0,0,0,0.0000,0.0000,0.00,0.00,0.00,0.000,0.000,0.000,0.000,0.000,0.000,0.00,0.00,0.00,0.0,0.0,
181,1768207119800,38432,18.00,0.00,32.03,0.00,0.00,0.00,0.00,0.00,0,0,0,0,0.0000,0.0000,0.00,0.00,0.00,0.000,0.000,0.000,0.000,0.000,0.000,0.00,0.00,0.00,0.0,0.0,
182,1768207120000,38632,18.00,0.00,31.63,0.00,0.00,0.00,0.00,0.00,0,0,0,0,0.0000,0.0000,0.00,0.00,0.00,0.000,0.000,0.000,0.000,0.000,0.000,0.00,0.00,0.00,0.0,0.0,
183,1768207120200,38832,48.00,0.00,31.17,8.04,0.00,0.00,0.00,0.00,0,0,0,0,0.0000,0.0000,0.00,0.00,0.00,0.000,0.000,0.000,0.000,0.000,0.000,0.00,0.00,0.00,0.0,0.0,
184,1768207120400,39032,60.00,0.00,32.05,0.00,0.00,0.00,0.00,0.00,0,0,0,0,0.0000,0.0000,0.00,0.00,0.00,0.000,0.000,0.000,0.000,0.000,0.000,0.00,0.00,0.00,0.0,0.0,
185,1768207121600,39232,48.00,0.00,31.74,0.00,0.00,0.00,0.00,0.00,0,0,0,0,0.0000,0.0000,0.00,0.00,0.00,0.000,0.000,0.000,0.000,0.000,0.000,0.00,0.00,0.00,0.0,0.0,
186,1768207121800,39432,18.00,0.00,31.85,0.00,0.00,0.00,0.00,0.00,0,0,0,0,0.0000,0.0000,0.00,0.00,0.00,0.000,0.000,0.000,0.000,0.000,0.000,0.00,0.00,0.00,0.0,0.0,
187,1768207122000,39632,60.00,0.00,32.00,0.00,0.00,0.00,0.00,0.00,0,0,0,0,0.0000,0.0000,0.00,0.00,0.00,0.000,0.000,0.000,0.000,0.000,0.000,0.00,0.00,0.00,0.0,0.0,
188,1768207122200,39832,54.00,0.00,32.31,0.00,0.00,0.00,0.00,0.00,0,0,0,0,0.0000,0.0000,0.00,0.00,0.00,0.000,0.000,0.000,0.000,0.000,0.000,0.00,0.00,0.00,0.0,0.0,
189,1768207122400,40032,42.00,0.00,32.03,0.09,0.00,0.00,0.00,0.00,0,0,0,0,0.0000,0.0000,0.00,0.00,0.00,0.000,0.000,0.000,0.000,0.000,0.000,0.00,0.00,0.00,0.0,0.0,
190,1768207123600,40232,66.00,0.00,32.14,0.00,0.00,0.00,0.00,0.00,0,0,0,0,0.0000,0.0000,0.00,0.00,0.00,0.000,0.000,0.000,0.000,0.000,0.000,0.00,0.00,0.00,0.0,0.0,
191,1768207123800,40432,24.00,0.00,32.29,0.00,0.00,0.00,0.00,0.00,0,0,0,0,0.0000,0.0000,0.00,0.00,0.00,0.000,0.000,0.000,0.000,0.000,0.000,0.00,0.00,0.00,0.0,0.0,
192,1768207124000,40632,48.00,0.00,31.89,0.00,0.00,0.00,0.00,0.00,0,0,0,0,0.0000,0.0000,0.00,0.00,0.00,0.000,0.000,0.000,0.000,0.000,0.000,0.00,0.00,0.00,0.0,0.0,
193,1768207124200,40832,42.00,0.00,32.22,0.00,0.00,0.00,0.00,0.00,0,0,0,0,0.0000,0.0000,0.00,0.00,0.00,0.000,0.000,0.000,0.000,0.000,0.000,0.00,0.00,0.00,0.0,0.0,
194,1768207124400,41032,24.00,0.00,32.40,0.00,0.00,0.00,0.00,0.00,0,0,0,0,0.0000,0.0000,0.00,0.00,0.00,0.000,0.000,0.000,0.000,0.000,0.000,0.00,0.00,0.00,0.0,0.0,
195,1768207125600,41232,30.00,0.00,31.78,0.00,0.00,0.00,0.00,0.00,0,0,0,0,0.0000,0.0000,0.00,0.00,0.00,0.000,0.000,0.000,0.000,0.000,0.000,0.00,0.00,0.00,0.0,0.0,
196,1768207125800,41432,72.00,0.00,32.14,0.00,0.00,0.00,0.00,0.00,0,0,0,0,0.0000,0.0000,0.00,0.00,0.00,0.000,0.000,0.000,0.000,0.000,0.000,0.00,0.00,0.00,0.0,0.0,
197,1768207126000,41632,36.00,0.00,31.81,0.20,0.00,0.00,0.00,0.00,0,0,0,0,0.0000,0.0000,0.00,0.00,0.00,0.000,0.000,0.000,0.000,0.000,0.000,0.00,0.00,0.00,0.0,0.0,
198,1768207126200,41832,60.00,0.00,31.92,0.40,0.00,0.00,0.00,0.00,0,0,0,0,0.0000,0.0000,0.00,0.00,0.00,0.000,0.000,0.000,0.000,0.000,0.000,0.00,0.00,0.00,0.0,0.0,
199,1768207126400,42032,54.00,0.00,31.56,0.00,0.00,0.00,0.00,0.00,0,0,0,0,0.0000,0.0000,0.00,0.00,0.00,0.000,0.000,0.000,0.000,0.000,0.000,0.00,0.00,0.00,0.0,0.0,
200,1768207127600,42232,42.00,0.00,32.33,0.00,0.00,0.00,0.00,0.00,0,0,0,0,0.0000,0.0000,0.00,0.00,0.00,0.000,0.000,0.000,0.000,0.000,0.000,0.00,0.00,0.00,0.0,0.0,
201,1768207127800,42432,72.00,0.00,32.14,0.00,0.00,0.00,0.00,0.00,0,0,0,0,0.0000,0.0000,0.00,0.00,0.00,0.000,0.000,0.000,0.000,0.000,0.000,0.00,0.00,0.00,0.0,0.0,
202,1768207128000,42632,42.00,0.00,31.87,0.20,0.00,0.00,0.00,0.00,0,0,0,0,0.0000,0.0000,0.00,0.00,0.00,0.000,0.000,0.000,0.000,0.000,0.000,0.00,0.00,0.00,0.0,0.0,
203,1768207128200,42832,36.00,0.00,31.89,0.00,0.00,0.00,0.00,0.00,0,0,0,0,0.0000,0.0000,0.00,0.00,0.00,0.000,0.000,0.000,0.000,0.000,0.000,0.00,0.00,0.00,0.0,0.0,
204,1768207128400,43032,66.00,0.00,32.00,0.00,0.00,0.00,0.00,0.00,0,0,0,0,0.0000,0.0000,0.00,0.00,0.00,0.000,0.000,0.000,0.000,0.000,0.000,0.00,0.00,0.00,0.0,0.0,
205,1768207129600,43232,42.00,0.00,32.07,0.00,0.00,0.00,0.00,0.00,0,0,0,0,0.0000,0.0000,0.00,0.00,0.00,0.000,0.000,0.000,0.000,0.000,0.000,0.00,0.00,0.00,0.0,0.0,
206,1768207129800,43432,30.00,0.00,31.63,0.00,0.00,0.00,0.00,0.00,0,0,0,0,0.0000,0.0000,0.00,0.00,0.00,0.000,0.000,0.000,0.000,0.000,0.000,0.00,0.00,0.00,0.0,0.0,
207,1768207130000,43632,42.00,0.00,31.63,0.00,0.00,0.00,0.00,0.00,0,0,0,0,0.0000,0.0000,0.00,0.00,0.00,0.000,0.000,0.000,0.000,0.000,0.000,0.00,0.00,0.00,0.0,0.0,
208,1768207130200,43832,54.00,0.00,32.07,0.02,0.00,0.00,0.00,0.00,0,0,0,0,0.0000,0.0000,0.00,0.00,0.00,0.000,0.000,0.000,0.000,0.000,0.000,0.00,0.00,0.00,0.0,0.0,
209,1768207130400,44032,42.00,0.00,31.63,0.64,0.00,0.00,0.00,0.00,0,0,0,0,0.0000,0.0000,0.00,0.00,0.00,0.000,0.000,0.000,0.000,0.000,0.000,0.00,0.00,0.00,0.0,0.0,
210,1768207131600,44232,90.00,0.00,31.79,0.02,0.00,0.00,0.00,0.00,0,0,0,0,0.0000,0.0000,0.00,0.00,0.00,0.000,0.000,0.000,0.000,0.000,0.000,0.00,0.00,0.00,0.0,0.0,
211,1768207131800,44432,42.00,0.00,31.89,0.00,0.00,0.00,0.00,0.00,0,0,0,0,0.0000,0.0000,0.00,0.00,0.00,0.000,0.000,0.000,0.000,0.000,0.000,0.00,0.00,0.00,0.0,0.0,
212,1768207132000,44632,30.00,0.00,32.07,0.00,0.00,0.00,0.00,0.00,0,0,0,0,0.0000,0.0000,0.00,0.00,0.00,0.000,0.000,0.000,0.000,0.000,0.000,0.00,0.00,0.00,0.0,0.0,
213,1768207132200,44832,60.00,0.00,31.87,0.00,0.00,0.00,0.00,0.00,0,0,0,0,0.0000,0.0000,0.00,0.00,0.00,0.000,0.000,0.000,0.000,0.000,0.000,0.00,0.00,0.00,0.0,0.0,
214,1768207132400,45032,66.00,0.00,32.00,0.00,0.00,0.00,0.00,0.00,0,0,0,0,0.0000,0.0000,0.00,0.00,0.00,0.000,0.000,0.000,0.000,0.000,0.000,0.00,0.00,0.00,0.0,0.0,
215,1768207133600,45232,54.00,0.00,31.85,0.13,0.00,0.00,0.00,0.00,0,0,0,0,0.0000,0.0000,0.00,0.00,0.00,0.000,0.000,0.000,0.000,0.000,0.000,0.00,0.00,0.00,0.0,0.0,
216,1768207133800,45432,48.00,0.00,31.61,0.00,0.00,0.00,0.00,0.00,0,0,0,0,0.0000,0.0000,0.00,0.00,0.00,0.000,0.000,0.000,0.000,0.000,0.000,0.00,0.00,0.00,0.0,0.0,
217,1768207134000,45632,42.00,0.00,31.81,0.00,0.00,0.00,0.00,0.00,0,0,0,0,0.0000,0.0000,0.00,0.00,0.00,0.000,0.000,0.000,0.000,0.000,0.000,0.00,0.00,0.00,0.0,0.0,
218,1768207134200,45832,48.00,0.00,31.78,0.46,0.00,0.00,0.00,0.00,0,0,0,0,0.0000,0.0000,0.00,0.00,0.00,0.000,0.000,0.000,0.000,0.000,0.000,0.00,0.00,0.00,0.0,0.0,
219,1768207134400,46032,54.00,0.00,32.03,0.00,0.00,0.00,0.00,0.00,0,0,0,0,0.0000,0.0000,0.00,0.00,0.00,0.000,0.000,0.000,0.000,0.000,0.000,0.00,0.00,0.00,0.0,0.0,
220,1768207135600,46232,30.00,0.00,31.96,0.00,0.00,0.00,0.00,0.00,0,0,0,0,0.0000,0.0000,0.00,0.00,0.00,0.000,0.000,0.000,0.000,0.000,0.000,0.00,0.00,0.00,0.0,0.0,
221,1768207135800,46432,54.00,0.00,32.00,0.07,0.00,0.00,0.00,0.00,0,0,0,0,0.0000,0.0000,0.00,0.00,0.00,0.000,0.000,0.000,0.000,0.000,0.000,0.00,0.00,0.00,0.0,0.0,
222,1768207136000,46632,30.00,0.00,31.79,0.00,0.00,0.00,0.00,0.00,0,0,0,0,0.0000,0.0000,0.00,0.00,0.00,0.000,0.000,0.000,0.000,0.000,0.000,0.00,0.00,0.00,0.0,0.0,
223,1768207136200,46832,60.00,0.00,31.89,0.00,0.00,0.00,0.00,0.00,0,0,0,0,0.0000,0.0000,0.00,0.00,0.00,0.000,0.000,0.000,0.000,0.000,0.000,0.00,0.00,0.00,0.0,0.0,
224,1768207136400,47032,36.00,0.00,32.31,0.00,0.00,0.00,0.00,0.00,0,0,0,0,0.0000,0.0000,0.00,0.00,0.00,0.000,0.000,0.000,0.000,0.000,0.000,0.00,0.00,0.00,0.0,0.0,
225,1768207137600,47232,18.00,0.00,31.59,0.18,0.00,0.00,0.00,0.00,0,0,0,0,0.0000,0.0000,0.00,0.00,0.00,0.000,0.000,0.000,0.000,0.000,0.000,0.00,0.00,0.00,0.0,0.0,
226,1768207137800,47432,72.00,0.00,32.03,0.00,0.00,0.00,0.00,0.00,0,0,0,0,0.0000,0.0000,0.00,0.00,0.00,0.000,0.000,0.000,0.000,0.000,0.000,0.00,0.00,0.00,0.0,0.0,
227,1768207138000,47632,36.00,0.00,31.85,0.00,0.00,0.00,0.00,0.00,0,0,0,0,0.0000,0.0000,0.00,0.00,0.00,0.000,0.000,0.000,0.000,0.000,0.000,0.00,0.00,0.00,0.0,0.0,
228,1768207138200,47832,42.00,0.00,32.00,0.00,0.00,0.00,0.00,0.00,0,0,0,0,0.0000,0.0000,0.00,0.00,0.00,0.000,0.000,0.000,0.000,0.000,0.000,0.00,0.00,0.00,0.0,0.0,
229,1768207138400,48032,54.00,0.00,32.20,0.00,0.00,0.00,0.00,0.00,0,0,0,0,0.0000,0.0000,0.00,0.00,0.00,0.000,0.000,0.000,0.000,0.000,0.000,0.00,0.00,0.00,0.0,0.0,
230,1768207139600,48232,36.00,0.00,32.07,0.00,0.00,0.00,0.00,0.00,0,0,0,0,0.0000,0.0000,0.00,0.00,0.00,0.000,0.000,0.000,0.000,0.000,0.000,0.00,0.00,0.00,0.0,0.0,
231,1768207139800,48432,48.00,0.00,32.00,0.00,0.00,0.00,0.00,0.00,0,0,0,0,0.0000,0.0000,0.00,0.00,0.00,0.000,0.000,0.000,0.000,0.000,0.000,0.00,0.00,0.00,0.0,0.0,
232,1768207140000,48632,42.00,0.00,32.03,0.02,0.00,0.00,0.00,0.00,0,0,0,0,0.0000,0.0000,0.00,0.00,0.00,0.000,0.000,0.000,0.000,0.000,0.000,0.00,0.00,0.00,0.0,0.0,
233,1768207140200,48832,24.00,0.00,31.59,0.00,0.00,0.00,0.00,0.00,0,0,0,0,0.0000,0.0000,0.00,0.00,0.00,0.000,0.000,0.000,0.000,0.000,0.000,0.00,0.00,0.00,0.0,0.0,
234,1768207140400,49032,30.00,0.00,32.22,0.00,0.00,0.00,0.00,0.00,0,0,0,0,0.0000,0.0000,0.00,0.00,0.00,0.000,0.000,0.000,0.000,0.000,0.000,0.00,0.00,0.00,0.0,0.0,
235,1768207141600,49232,60.00,0.00,31.92,0.00,0.00,0.00,0.00,0.00,0,0,0,0,0.0000,0.0000,0.00,0.00,0.00,0.000,0.000,0.000,0.000,0.000,0.000,0.00,0.00,0.00,0.0,0.0,
236,1768207141800,49432,18.00,0.00,32.38,0.00,0.00,0.00,0.00,0.00,0,0,0,0,0.0000,0.0000,0.00,0.00,0.00,0.000,0.000,0.000,0.000,0.000,0.000,0.00,0.00,0.00,0.0,0.0,
237,1768207142000,49632,18.00,0.00,31.83,0.00,0.00,0.00,0.00,0.00,0,0,0,0,0.0000,0.0000,0.00,0.00,0.00,0.000,0.000,0.000,0.000,0.000,0.000,0.00,0.00,0.00,0.0,0.0,
238,1768207142200,49832,48.00,0.00,32.22,0.00,0.00,0.00,0.00,0.00,0,0,0,0,0.0000,0.0000,0.00,0.00,0.00,0.000,0.000,0.000,0.000,0.000,0.000,0.00,0.00,0.00,0.0,0.0,
239,1768207142400,50032,42.00,0.00,31.56,0.00,0.00,0.00,0.00,0.00,0,0,0,0,0.0000,0.0000,0.00,0.00,0.00,0.000,0.000,0.000,0.000,0.000,0.000,0.00,0.00,0.00,0.0,0.0,
240,1768207143600,50232,72.00,0.00,32.03,0.00,0.00,0.00,0.00,0.00,0,0,0,0,0.0000,0.0000,0.00,0.00,0.00,0.000,0.000,0.000,0.000,0.000,0.000,0.00,0.00,0.00,0.0,0.0,
241,1768207143800,50432,24.00,0.00,32.31,0.00,0.00,0.00,0.00,0.00,0,0,0,0,0.0000,0.0000,0.00,0.00,0.00,0.000,0.000,0.000,0.000,0.000,0.000,0.00,0.00,0.00,0.0,0.0,
242,1768207144000,50632,42.00,0.00,32.14,0.00,0.00,0.00,0.00,0.00,0,0,0,0,0.0000,0.0000,0.00,0.00,0.00,0.000,0.000,0.000,0.000,0.000,0.000,0.00,0.00,0.00,0.0,0.0,
243,1768207144200,50832,42.00,0.00,32.20,0.00,0.00,0.00,0.00,0.00,0,0,0,0,0.0000,0.0000,0.00,0.00,0.00,0.000,0.000,0.000,0.000,0.000,0.000,0.00,0.00,0.00,0.0,0.0,
244,1768207144400,51032,48.00,0.00,31.85,0.00,0.00,0.00,0.00,0.00,0,0,0,0,0.0000,0.0000,0.00,0.00,0.00,0.000,0.000,0.000,0.000,0.000,0.000,0.00,0.00,0.00,0.0,0.0,
245,1768207145600,51232,48.00,0.00,31.76,0.33,0.00,0.00,0.00,0.00,0,0,0,0,0.0000,0.0000,0.00,0.00,0.00,0.000,0.000,0.000,0.000,0.000,0.000,0.00,0.00,0.00,0.0,0.0,
246,1768207145800,51432,66.00,0.00,31.92,0.02,0.00,0.00,0.00,0.00,0,0,0,0,0.0000,0.0000,0.00,0.00,0.00,0.000,0.000,0.000,0.000,0.000,0.000,0.00,0.00,0.00,0.0,0.0,
247,1768207146000,51632,72.00,0.00,32.05,0.00,0.00,0.00,0.00,0.00,0,0,0,0,0.0000,0.0000,0.00,0.00,0.00,0.000,0.000,0.000,0.000,0.000,0.000,0.00,0.00,0.00,0.0,0.0,
248,1768207146200,51832,48.00,0.00,31.59,54.16,0.00,0.00,0.00,0.00,0,0,0,0,0.0000,0.0000,0.00,0.00,0.00,0.000,0.000,0.000,0.000,0.000,0.000,0.00,0.00,0.00,0.0,0.0,
249,1768207146400,52032,102.00,0.00,31.90,0.00,0.00,0.00,0.00,0.00,0,0,0,0,0.0000,0.0000,0.00,0.00,0.00,0.000,0.000,0.000,0.000,0.000,0.000,0.00,0.00,0.00,0.0,0.0,
250,1768207147600,52232,24.00,0.00,31.30,60.88,0.00,0.00,0.00,0.00,0,0,0,0,0.0000,0.0000,0.00,0.00,0.00,0.000,0.000,0.000,0.000,0.000,0.000,0.00,0.00,0.00,0.0,0.0,
251,1768207147800,52432,24.00,0.00,31.85,0.18,0.00,0.00,0.00,0.00,0,0,0,0,0.0000,0.0000,0.00,0.00,0.00,0.000,0.000,0.000,0.000,0.000,0.000,0.00,0.00,0.00,0.0,0.0,
252,1768207148000,52632,30.00,0.00,31.23,31.63,0.00,0.00,0.00,0.00,0,0,0,0,0.0000,0.0000,0.00,0.00,0.00,0.000,0.000,0.000,0.000,0.000,0.000,0.00,0.00,0.00,0.0,0.0,
253,1768207148200,52832,48.00,0.00,31.87,0.00,0.00,0.00,0.00,0.00,0,0,0,0,0.0000,0.0000,0.00,0.00,0.00,0.000,0.000,0.000,0.000,0.000,0.000,0.00,0.00,0.00,0.0,0.0,
254,1768207148400,53032,48.00,0.00,31.34,41.15,0.00,0.00,0.00,0.00,0,0,0,0,0.0000,0.0000,0.00,0.00,0.00,0.000,0.000,0.000,0.000,0.000,0.000,0.00,0.00,0.00,0.0,0.0,
255,1768207149600,53232,252.00,0.00,32.20,0.00,0.00,0.00,0.00,0.00,0,0,0,0,0.0000,0.0000,0.00,0.00,0.00,0.000,0.000,0.000,0.000,0.000,0.000,0.00,0.00,0.00,0.0,0.0,
256,1768207149800,53432,60.00,0.00,31.19,38.22,0.00,0.00,0.00,0.00,0,0,0,0,0.0000,0.0000,0.00,0.00,0.00,0.000,0.000,0.000,0.000,0.000,0.000,0.00,0.00,0.00,0.0,0.0,
257,1768207150000,53632,48.00,0.00,31.81,0.00,0.00,0.00,0.00,0.00,0,0,0,0,0.0000,0.0000,0.00,0.00,0.00,0.000,0.000,0.000,0.000,0.000,0.000,0.00,0.00,0.00,0.0,0.0,
258,1768207150200,53832,18.00,0.00,30.90,35.33,0.00,0.00,0.00,0.00,0,0,0,0,0.0000,0.0000,0.00,0.00,0.00,0.000,0.000,0.000,0.000,0.000,0.000,0.00,0.00,0.00,0.0,0.0,
259,1768207150400,54032,336.00,0.00,31.81,0.05,0.00,0.00,0.00,0.00,0,0,0,0,0.0000,0.0000,0.00,0.00,0.00,0.000,0.000,0.000,0.000,0.000,0.000,0.00,0.00,0.00,0.0,0.0,
260,1768207151600,54232,36.00,0.00,30.99,65.29,0.00,0.00,0.00,0.00,0,0,0,0,0.0000,0.0000,0.00,0.00,0.00,0.000,0.000,0.000,0.000,0.000,0.000,0.00,0.00,0.00,0.0,0.0,
261,1768207151800,54432,126.00,0.00,32.33,0.00,0.00,0.00,0.00,0.00,0,0,0,0,0.0000,0.0000,0.00,0.00,0.00,0.000,0.000,0.000,0.000,0.000,0.000,0.00,0.00,0.00,0.0,0.0,
262,1768207152000,54632,60.00,0.00,31.47,50.86,0.00,0.00,0.00,0.00,0,0,0,0,0.0000,0.0000,0.00,0.00,0.00,0.000,0.000,0.000,0.000,0.000,0.000,0.00,0.00,0.00,0.0,0.0,
263,1768207152200,54832,150.00,0.00,31.81,0.07,0.00,0.00,0.00,0.00,0,0,0,0,0.0000,0.0000,0.00,0.00,0.00,0.000,0.000,0.000,0.000,0.000,0.000,0.00,0.00,0.00,0.0,0.0,
264,1768207152400,55032,36.00,0.00,32.01,0.02,0.00,0.00,0.00,0.00,0,0,0,0,0.0000,0.0000,0.00,0.00,0.00,0.000,0.000,0.000,0.000,0.000,0.000,0.00,0.00,0.00,0.0,0.0,
265,1768207153600,55232,30.00,0.00,31.89,0.00,0.00,0.00,0.00,0.00,0,0,0,0,0.0000,0.0000,0.00,0.00,0.00,0.000,0.000,0.000,0.000,0.000,0.000,0.00,0.00,0.00,0.0,0.0,
266,1768207153800,55432,30.00,0.00,32.00,0.00,0.00,0.00,0.00,0.00,0,0,0,0,0.0000,0.0000,0.00,0.00,0.00,0.000,0.000,0.000,0.000,0.000,0.000,0.00,0.00,0.00,0.0,0.0,
267,1768207154000,55632,60.00,0.00,31.96,0.00,0.00,0.00,0.00,0.00,0,0,0,0,0.0000,0.0000,0.00,0.00,0.00,0.000,0.000,0.000,0.000,0.000,0.000,0.00,0.00,0.00,0.0,0.0,
268,1768207154200,55832,48.00,0.00,30.90,34.41,0.00,0.00,0.00,0.00,0,0,0,0,0.0000,0.0000,0.00,0.00,0.00,0.000,0.000,0.000,0.000,0.000,0.000,0.00,0.00,0.00,0.0,0.0,
269,1768207154400,56032,78.00,0.00,32.09,0.07,0.00,0.00,0.00,0.00,0,0,0,0,0.0000,0.0000,0.00,0.00,0.00,0.000,0.000,0.000,0.000,0.000,0.000,0.00,0.00,0.00,0.0,0.0,
270,1768207155600,56232,30.00,0.00,31.61,0.20,0.00,0.00,0.00,0.00,0,0,0,0,0.0000,0.0000,0.00,0.00,0.00,0.000,0.000,0.000,0.000,0.000,0.000,0.00,0.00,0.00,0.0,0.0,
271,1768207155800,56432,24.00,0.00,32.05,0.00,0.00,0.00,0.00,0.00,0,0,0,0,0.0000,0.0000,0.00,0.00,0.00,0.000,0.000,0.000,0.000,0.000,0.000,0.00,0.00,0.00,0.0,0.0,
272,1768207156000,56632,66.00,0.00,32.07,0.00,0.00,0.00,0.00,0.00,0,0,0,0,0.0000,0.0000,0.00,0.00,0.00,0.000,0.000,0.000,0.000,0.000,0.000,0.00,0.00,0.00,0.0,0.0,
273,1768207156200,56832,24.00,0.00,32.22,0.00,0.00,0.00,0.00,0.00,0,0,0,0,0.0000,0.0000,0.00,0.00,0.00,0.000,0.000,0.000,0.000,0.000,0.000,0.00,0.00,0.00,0.0,0.0,
274,1768207156400,57032,66.00,0.00,31.79,0.00,0.00,0.00,0.00,0.00,0,0,0,0,0.0000,0.0000,0.00,0.00,0.00,0.000,0.000,0.000,0.000,0.000,0.000,0.00,0.00,0.00,0.0,0.0,
275,1768207157600,57232,54.00,0.00,31.63,0.33,0.00,0.00,0.00,0.00,0,0,0,0,0.0000,0.0000,0.00,0.00,0.00,0.000,0.000,0.000,0.000,0.000,0.000,0.00,0.00,0.00,0.0,0.0,
276,1768207157800,57432,48.00,0.00,31.47,0.00,0.00,0.00,0.00,0.00,0,0,0,0,0.0000,0.0000,0.00,0.00,0.00,0.000,0.000,0.000,0.000,0.000,0.000,0.00,0.00,0.00,0.0,0.0,
277,1768207158000,57632,54.00,0.00,31.87,0.00,0.00,0.00,0.00,0.00,0,0,0,0,0.0000,0.0000,0.00,0.00,0.00,0.000,0.000,0.000,0.000,0.000,0.000,0.00,0.00,0.00,0.0,0.0,
278,1768207158200,57832,36.00,0.00,31.78,0.00,0.00,0.00,0.00,0.00,0,0,0,0,0.0000,0.0000,0.00,0.00,0.00,0.000,0.000,0.000,0.000,0.000,0.000,0.00,0.00,0.00,0.0,0.0,
279,1768207158400,58032,60.00,0.00,31.81,0.00,0.00,0.00,0.00,0.00,0,0,0,0,0.0000,0.0000,0.00,0.00,0.00,0.000,0.000,0.000,0.000,0.000,0.000,0.00,0.00,0.00,0.0,0.0,
280,1768207159600,58232,18.00,0.00,32.05,0.05,0.00,0.00,0.00,0.00,0,0,0,0,0.0000,0.0000,0.00,0.00,0.00,0.000,0.000,0.000,0.000,0.000,0.000,0.00,0.00,0.00,0.0,0.0,
281,1768207159800,58432,54.00,0.00,32.14,0.00,0.00,0.00,0.00,0.00,0,0,0,0,0.0000,0.0000,0.00,0.00,0.00,0.000,0.000,0.000,0.000,0.000,0.000,0.00,0.00,0.00,0.0,0.0,
282,1768207160000,58632,36.00,0.00,32.11,0.00,0.00,0.00,0.00,0.00,0,0,0,0,0.0000,0.0000,0.00,0.00,0.00,0.000,0.000,0.000,0.000,0.000,0.000,0.00,0.00,0.00,0.0,0.0,
283,1768207160200,58832,36.00,0.00,32.00,0.00,0.00,0.00,0.00,0.00,0,0,0,0,0.0000,0.0000,0.00,0.00,0.00,0.000,0.000,0.000,0.000,0.000,0.000,0.00,0.00,0.00,0.0,0.0,
284,1768207160400,59032,48.00,0.00,31.85,0.31,0.00,0.00,0.00,0.00,0,0,0,0,0.0000,0.0000,0.00,0.00,0.00,0.000,0.000,0.000,0.000,0.000,0.000,0.00,0.00,0.00,0.0,0.0,
285,1768207161600,59232,24.00,0.00,32.05,0.00,0.00,0.00,0.00,0.00,0,0,0,0,0.0000,0.0000,0.00,0.00,0.00,0.000,0.000,0.000,0.000,0.000,0.000,0.00,0.00,0.00,0.0,0.0,
286,1768207161800,59432,42.00,0.00,31.74,0.18,0.00,0.00,0.00,0.00,0,0,0,0,0.0000,0.0000,0.00,0.00,0.00,0.000,0.000,0.000,0.000,0.000,0.000,0.00,0.00,0.00,0.0,0.0,
287,1768207162000,59632,24.00,0.00,31.78,0.05,0.00,0.00,0.00,0.00,0,0,0,0,0.0000,0.0000,0.00,0.00,0.00,0.000,0.000,0.000,0.000,0.000,0.000,0.00,0.00,0.00,0.0,0.0,
288,1768207162200,59832,48.00,0.00,32.33,0.00,0.00,0.00,0.00,0.00,0,0,0,0,0.0000,0.0000,0.00,0.00,0.00,0.000,0.000,0.000,0.000,0.000,0.000,0.00,0.00,0.00,0.0,0.0,
289,1768207162400,60032,48.00,0.00,31.89,0.00,0.00,0.00,0.00,0.00,0,0,0,0,0.0000,0.0000,0.00,0.00,0.00,0.000,0.000,0.000,0.000,0.000,0.000,0.00,0.00,0.00,0.0,0.0,
290,1768207163600,60232,36.00,0.00,31.89,0.00,0.00,0.00,0.00,0.00,0,0,0,0,0.0000,0.0000,0.00,0.00,0.00,0.000,0.000,0.000,0.000,0.000,0.000,0.00,0.00,0.00,0.0,0.0,
291,1768207163800,60432,54.00,0.00,32.14,0.00,0.00,0.00,0.00,0.00,0,0,0,0,0.0000,0.0000,0.00,0.00,0.00,0.000,0.000,0.000,0.000,0.000,0.000,0.00,0.00,0.00,0.0,0.0,
292,1768207164000,60632,96.00,0.00,31.63,0.00,0.00,0.00,0.00,0.00,0,0,0,0,0.0000,0.0000,0.00,0.00,0.00,0.000,0.000,0.000,0.000,0.000,0.000,0.00,0.00,0.00,0.0,0.0,
293,1768207164200,60832,288.00,0.00,31.32,0.00,0.00,0.00,0.00,0.00,0,0,0,0,0.0000,0.0000,0.00,0.00,0.00,0.000,0.000,0.000,0.000,0.000,0.000,0.00,0.00,0.00,0.0,0.0,
294,1768207164400,61032,78.00,0.00,30.86,28.64,0.00,0.00,0.00,0.00,0,0,0,0,0.0000,0.0000,0.00,0.00,0.00,0.000,0.000,0.000,0.000,0.000,0.000,0.00,0.00,0.00,0.0,0.0,
295,1768207165600,61232,84.00,0.00,31.56,0.00,0.00,0.00,0.00,0.00,0,0,0,0,0.0000,0.0000,0.00,0.00,0.00,0.000,0.000,0.000,0.000,0.000,0.000,0.00,0.00,0.00,0.0,0.0,
296,1768207165800,61432,78.00,0.00,31.65,0.00,0.00,0.00,0.00,0.00,0,0,0,0,0.0000,0.0000,0.00,0.00,0.00,0.000,0.000,0.000,0.000,0.000,0.000,0.00,0.00,0.00,0.0,0.0,
297,1768207166000,61632,54.00,0.00,31.96,2.29,0.00,0.00,0.00,0.00,0,0,0,0,0.0000,0.0000,0.00,0.00,0.00,0.000,0.000,0.000,0.000,0.000,0.000,0.00,0.00,0.00,0.0,0.0,
298,1768207166200,61832,12.00,0.00,31.26,0.00,0.00,0.00,0.00,0.00,0,0,0,0,0.0000,0.0000,0.00,0.00,0.00,0.000,0.000,0.000,0.000,0.000,0.000,0.00,0.00,0.00,0.0,0.0,
299,1768207166400,62032,60.00,0.00,31.56,0.00,0.00,0.00,0.00,0.00,0,0,0,0,0.0000,0.0000,0.00,0.00,0.00,0.000,0.000,0.000,0.000,0.000,0.000,0.00,0.00,0.00,0.0,0.0,
300,1768207167600,62232,42.00,0.00,31.79,0.00,0.00,0.00,0.00,0.00,0,0,0,0,0.0000,0.0000,0.00,0.00,0.00,0.000,0.000,0.000,0.000,0.000,0.000,0.00,0.00,0.00,0.0,0.0,
301,1768207167800,62432,60.00,0.00,31.58,0.00,0.00,0.00,0.00,0.00,0,0,0,0,0.0000,0.0000,0.00,0.00,0.00,0.000,0.000,0.000,0.000,0.000,0.000,0.00,0.00,0.00,0.0,0.0,
302,1768207168000,62632,42.00,0.00,32.36,0.00,0.00,0.00,0.00,0.00,0,0,0,0,0.0000,0.0000,0.00,0.00,0.00,0.000,0.000,0.000,0.000,0.000,0.000,0.00,0.00,0.00,0.0,0.0,
303,1768207168200,62832,30.00,0.00,31.81,0.00,0.00,0.00,0.00,0.00,0,0,0,0,0.0000,0.0000,0.00,0.00,0.00,0.000,0.000,0.000,0.000,0.000,0.000,0.00,0.00,0.00,0.0,0.0,
304,1768207168400,63032,54.00,0.00,31.87,0.22,0.00,0.00,0.00,0.00,0,0,0,0,0.0000,0.0000,0.00,0.00,0.00,0.000,0.000,0.000,0.000,0.000,0.000,0.00,0.00,0.00,0.0,0.0,
305,1768207169600,63232,48.00,0.00,31.90,0.00,0.00,0.00,0.00,0.00,0,0,0,0,0.0000,0.0000,0.00,0.00,0.00,0.000,0.000,0.000,0.000,0.000,0.000,0.00,0.00,0.00,0.0,0.0,
306,1768207169800,63432,42.00,0.00,31.74,0.00,0.00,0.00,0.00,0.00,0,0,0,0,0.0000,0.0000,0.00,0.00,0.00,0.000,0.000,0.000,0.000,0.000,0.000,0.00,0.00,0.00,0.0,0.0,
307,1768207170000,63632,42.00,0.00,31.47,0.31,0.00,0.00,0.00,0.00,0,0,0,0,0.0000,0.0000,0.00,0.00,0.00,0.000,0.000,0.000,0.000,0.000,0.000,0.00,0.00,0.00,0.0,0.0,
308,1768207170200,63832,78.00,0.00,31.34,0.00,0.00,0.00,0.00,0.00,0,0,0,0,0.0000,0.0000,0.00,0.00,0.00,0.000,0.000,0.000,0.000,0.000,0.000,0.00,0.00,0.00,0.0,0.0,
309,1768207170400,64032,72.00,0.00,31.56,0.00,0.00,0.00,0.00,0.00,0,0,0,0,0.0000,0.0000,0.00,0.00,0.00,0.000,0.000,0.000,0.000,0.000,0.000,0.00,0.00,0.00,0.0,0.0,
310,1768207171600,64232,48.00,0.00,31.59,0.35,0.00,0.00,0.00,0.00,0,0,0,0,0.0000,0.0000,0.00,0.00,0.00,0.000,0.000,0.000,0.000,0.000,0.000,0.00,0.00,0.00,0.0,0.0,
311,1768207171800,64432,30.00,0.00,31.34,3.17,0.00,0.00,0.00,0.00,0,0,0,0,0.0000,0.0000,0.00,0.00,0.00,0.000,0.000,0.000,0.000,0.000,0.000,0.00,0.00,0.00,0.0,0.0,
312,1768207172000,64632,54.00,0.00,31.74,1.45,0.00,0.00,0.00,0.00,0,0,0,0,0.0000,0.0000,0.00,0.00,0.00,0.000,0.000,0.000,0.000,0.000,0.000,0.00,0.00,0.00,0.0,0.0,
313,1768207172200,64832,18.00,0.00,31.45,0.00,0.00,0.00,0.00,0.00,0,0,0,0,0.0000,0.0000,0.00,0.00,0.00,0.000,0.000,0.000,0.000,0.000,0.000,0.00,0.00,0.00,0.0,0.0,
314,1768207172400,65032,66.00,0.00,31.87,0.00,0.00,0.00,0.00,0.00,0,0,0,0,0.0000,0.0000,0.00,0.00,0.00,0.000,0.000,0.000,0.000,0.000,0.000,0.00,0.00,0.00,0.0,0.0,
315,1768207173600,65232,24.00,0.00,32.16,0.00,0.00,0.00,0.00,0.00,0,0,0,0,0.0000,0.0000,0.00,0.00,0.00,0.000,0.000,0.000,0.000,0.000,0.000,0.00,0.00,0.00,0.0,0.0,
316,1768207173800,65432,30.00,0.00,32.18,0.00,0.00,0.00,0.00,0.00,0,0,0,0,0.0000,0.0000,0.00,0.00,0.00,0.000,0.000,0.000,0.000,0.000,0.000,0.00,0.00,0.00,0.0,0.0,
317,1768207174000,65632,42.00,0.00,31.98,0.05,0.00,0.00,0.00,0.00,0,0,0,0,0.0000,0.0000,0.00,0.00,0.00,0.000,0.000,0.000,0.000,0.000,0.000,0.00,0.00,0.00,0.0,0.0,
318,1768207174200,65832,54.00,0.00,31.85,0.00,0.00,0.00,0.00,0.00,0,0,0,0,0.0000,0.0000,0.00,0.00,0.00,0.000,0.000,0.000,0.000,0.000,0.000,0.00,0.00,0.00,0.0,0.0,
319,1768207174400,66032,18.00,0.00,31.89,0.02,0.00,0.00,0.00,0.00,0,0,0,0,0.0000,0.0000,0.00,0.00,0.00,0.000,0.000,0.000,0.000,0.000,0.000,0.00,0.00,0.00,0.0,0.0,
320,1768207175600,66232,48.00,0.00,31.89,0.04,0.00,0.00,0.00,0.00,0,0,0,0,0.0000,0.0000,0.00,0.00,0.00,0.000,0.000,0.000,0.000,0.000,0.000,0.00,0.00,0.00,0.0,0.0,
321,1768207175800,66432,48.00,0.00,31.81,0.00,0.00,0.00,0.00,0.00,0,0,0,0,0.0000,0.0000,0.00,0.00,0.00,0.000,0.000,0.000,0.000,0.000,0.000,0.00,0.00,0.00,0.0,0.0,
322,1768207176000,66632,24.00,0.00,32.18,0.00,0.00,0.00,0.00,0.00,0,0,0,0,0.0000,0.0000,0.00,0.00,0.00,0.000,0.000,0.000,0.000,0.000,0.000,0.00,0.00,0.00,0.0,0.0,
323,1768207176200,66832,42.00,0.00,32.31,0.00,0.00,0.00,0.00,0.00,0,0,0,0,0.0000,0.0000,0.00,0.00,0.00,0.000,0.000,0.000,0.000,0.000,0.000,0.00,0.00,0.00,0.0,0.0,
324,1768207176400,67032,54.00,0.00,31.78,0.00,0.00,0.00,0.00,0.00,0,0,0,0,0.0000,0.0000,0.00,0.00,0.00,0.000,0.000,0.000,0.000,0.000,0.000,0.00,0.00,0.00,0.0,0.0,
325,1768207177600,67232,54.00,0.00,32.03,0.00,0.00,0.00,0.00,0.00,0,0,0,0,0.0000,0.0000,0.00,0.00,0.00,0.000,0.000,0.000,0.000,0.000,0.000,0.00,0.00,0.00,0.0,0.0,
326,1768207177800,67432,12.00,0.00,31.81,0.00,0.00,0.00,0.00,0.00,0,0,0,0,0.0000,0.0000,0.00,0.00,0.00,0.000,0.000,0.000,0.000,0.000,0.000,0.00,0.00,0.00,0.0,0.0,
327,1768207178000,67632,18.00,0.00,31.56,0.13,0.00,0.00,0.00,0.00,0,0,0,0,0.0000,0.0000,0.00,0.00,0.00,0.000,0.000,0.000,0.000,0.000,0.000,0.00,0.00,0.00,0.0,0.0,
328,1768207178200,67832,36.00,0.00,32.14,0.05,0.00,0.00,0.00,0.00,0,0,0,0,0.0000,0.0000,0.00,0.00,0.00,0.000,0.000,0.000,0.000,0.000,0.000,0.00,0.00,0.00,0.0,0.0,
329,1768207178400,68032,54.00,0.00,31.79,0.00,0.00,0.00,0.00,0.00,0,0,0,0,0.0000,0.0000,0.00,0.00,0.00,0.000,0.000,0.000,0.000,0.000,0.000,0.00,0.00,0.00,0.0,0.0,
330,1768207179600,68232,30.00,0.00,31.61,0.11,0.00,0.00,0.00,0.00,0,0,0,0,0.0000,0.0000,0.00,0.00,0.00,0.000,0.000,0.000,0.000,0.000,0.000,0.00,0.00,0.00,0.0,0.0,
331,1768207179800,68432,42.00,0.00,31.83,0.00,0.00,0.00,0.00,0.00,0,0,0,0,0.0000,0.0000,0.00,0.00,0.00,0.000,0.000,0.000,0.000,0.000,0.000,0.00,0.00,0.00,0.0,0.0,
332,1768207180000,68632,48.00,0.00,32.29,0.00,0.00,0.00,0.00,0.00,0,0,0,0,0.0000,0.0000,0.00,0.00,0.00,0.000,0.000,0.000,0.000,0.000,0.000,0.00,0.00,0.00,0.0,0.0,
333,1768207180200,68832,90.00,0.00,32.03,0.02,0.00,0.00,0.00,0.00,0,0,0,0,0.0000,0.0000,0.00,0.00,0.00,0.000,0.000,0.000,0.000,0.000,0.000,0.00,0.00,0.00,0.0,0.0,
334,1768207180400,69032,60.00,0.00,32.11,0.11,0.00,0.00,0.00,0.00,0,0,0,0,0.0000,0.0000,0.00,0.00,0.00,0.000,0.000,0.000,0.000,0.000,0.000,0.00,0.00,0.00,0.0,0.0,
335,1768207181600,69232,42.00,0.00,31.58,0.33,0.00,0.00,0.00,0.00,0,0,0,0,0.0000,0.0000,0.00,0.00,0.00,0.000,0.000,0.000,0.000,0.000,0.000,0.00,0.00,0.00,0.0,0.0,
336,1768207181800,69432,66.00,0.00,31.87,0.00,0.00,0.00,0.00,0.00,0,0,0,0,0.0000,0.0000,0.00,0.00,0.00,0.000,0.000,0.000,0.000,0.000,0.000,0.00,0.00,0.00,0.0,0.0,
337,1768207182000,69632,42.00,0.00,31.56,0.00,0.00,0.00,0.00,0.00,0,0,0,0,0.0000,0.0000,0.00,0.00,0.00,0.000,0.000,0.000,0.000,0.000,0.000,0.00,0.00,0.00,0.0,0.0,
338,1768207182200,69832,30.00,0.00,32.18,0.00,0.00,0.00,0.00,0.00,0,0,0,0,0.0000,0.0000,0.00,0.00,0.00,0.000,0.000,0.000,0.000,0.000,0.000,0.00,0.00,0.00,0.0,0.0,
339,1768207182400,70032,72.00,0.00,31.96,0.02,0.00,0.00,0.00,0.00,0,0,0,0,0.0000,0.0000,0.00,0.00,0.00,0.000,0.000,0.000,0.000,0.000,0.000,0.00,0.00,0.00,0.0,0.0,
340,1768207183600,70232,36.00,0.00,31.79,0.31,0.00,0.00,0.00,0.00,0,0,0,0,0.0000,0.0000,0.00,0.00,0.00,0.000,0.000,0.000,0.000,0.000,0.000,0.00,0.00,0.00,0.0,0.0,
341,1768207183800,70432,60.00,0.00,31.79,0.00,0.00,0.00,0.00,0.00,0,0,0,0,0.0000,0.0000,0.00,0.00,0.00,0.000,0.000,0.000,0.000,0.000,0.000,0.00,0.00,0.00,0.0,0.0,
342,1768207184000,70632,30.00,0.00,32.01,0.00,0.00,0.00,0.00,0.00,0,0,0,0,0.0000,0.0000,0.00,0.00,0.00,0.000,0.000,0.000,0.000,0.000,0.000,0.00,0.00,0.00,0.0,0.0,
343,1768207184200,70832,48.00,0.00,31.79,0.00,0.00,0.00,0.00,0.00,0,0,0,0,0.0000,0.0000,0.00,0.00,0.00,0.000,0.000,0.000,0.000,0.000,0.000,0.00,0.00,0.00,0.0,0.0,
344,1768207184400,71032,36.00,0.00,32.14,0.00,0.00,0.00,0.00,0.00,0,0,0,0,0.0000,0.0000,0.00,0.00,0.00,0.000,0.000,0.000,0.000,0.000,0.000,0.00,0.00,0.00,0.0,0.0,
345,1768207185600,71232,42.00,0.00,31.92,0.00,0.00,0.00,0.00,0.00,0,0,0,0,0.0000,0.0000,0.00,0.00,0.00,0.000,0.000,0.000,0.000,0.000,0.000,0.00,0.00,0.00,0.0,0.0,
346,1768207185800,71432,36.00,0.00,31.98,0.00,0.00,0.00,0.00,0.00,0,0,0,0,0.0000,0.0000,0.00,0.00,0.00,0.000,0.000,0.000,0.000,0.000,0.000,0.00,0.00,0.00,0.0,0.0,
347,1768207186000,71632,24.00,0.00,31.78,0.00,0.00,0.00,0.00,0.00,0,0,0,0,0.0000,0.0000,0.00,0.00,0.00,0.000,0.000,0.000,0.000,0.000,0.000,0.00,0.00,0.00,0.0,0.0,
348,1768207186200,71832,24.00,0.00,32.22,0.00,0.00,0.00,0.00,0.00,0,0,0,0,0.0000,0.0000,0.00,0.00,0.00,0.000,0.000,0.000,0.000,0.000,0.000,0.00,0.00,0.00,0.0,0.0,
349,1768207186400,72032,42.00,0.00,32.20,0.00,0.00,0.00,0.00,0.00,0,0,0,0,0.0000,0.0000,0.00,0.00,0.00,0.000,0.000,0.000,0.000,0.000,0.000,0.00,0.00,0.00,0.0,0.0,
350,1768207187600,72232,48.00,0.00,32.14,0.00,0.00,0.00,0.00,0.00,0,0,0,0,0.0000,0.0000,0.00,0.00,0.00,0.000,0.000,0.000,0.000,0.000,0.000,0.00,0.00,0.00,0.0,0.0,
351,1768207187800,72432,36.00,0.00,31.90,0.00,0.00,0.00,0.00,0.00,0,0,0,0,0.0000,0.0000,0.00,0.00,0.00,0.000,0.000,0.000,0.000,0.000,0.000,0.00,0.00,0.00,0.0,0.0,
352,1768207188000,72632,60.00,0.00,31.79,0.13,0.00,0.00,0.00,0.00,0,0,0,0,0.0000,0.0000,0.00,0.00,0.00,0.000,0.000,0.000,0.000,0.000,0.000,0.00,0.00,0.00,0.0,0.0,
353,1768207188200,72832,42.00,0.00,31.89,1.23,0.00,0.00,0.00,0.00,0,0,0,0,0.0000,0.0000,0.00,0.00,0.00,0.000,0.000,0.000,0.000,0.000,0.000,0.00,0.00,0.00,0.0,0.0,
354,1768207188400,73032,66.00,0.00,31.01,1.03,0.00,0.00,0.00,0.00,0,0,0,0,0.0000,0.0000,0.00,0.00,0.00,0.000,0.000,0.000,0.000,0.000,0.000,0.00,0.00,0.00,0.0,0.0,
355,1768207189600,73232,54.00,0.00,31.89,0.00,0.00,0.00,0.00,0.00,0,0,0,0,0.0000,0.0000,0.00,0.00,0.00,0.000,0.000,0.000,0.000,0.000,0.000,0.00,0.00,0.00,0.0,0.0,
356,1768207189800,73432,66.00,0.00,31.63,0.00,0.00,0.00,0.00,0.00,0,0,0,0,0.0000,0.0000,0.00,0.00,0.00,0.000,0.000,0.000,0.000,0.000,0.000,0.00,0.00,0.00,0.0,0.0,
357,1768207190000,73632,42.00,0.00,32.33,0.00,0.00,0.00,0.00,0.00,0,0,0,0,0.0000,0.0000,0.00,0.00,0.00,0.000,0.000,0.000,0.000,0.000,0.000,0.00,0.00,0.00,0.0,0.0,
358,1768207190200,73832,54.00,0.00,32.11,0.13,0.00,0.00,0.00,0.00,0,0,0,0,0.0000,0.0000,0.00,0.00,0.00,0.000,0.000,0.000,0.000,0.000,0.000,0.00,0.00,0.00,0.0,0.0,
359,1768207190400,74032,12.00,0.00,32.01,0.00,0.00,0.00,0.00,0.00,0,0,0,0,0.0000,0.0000,0.00,0.00,0.00,0.000,0.000,0.000,0.000,0.000,0.000,0.00,0.00,0.00,0.0,0.0,
360,1768207191600,74232,36.00,0.00,31.92,0.11,0.00,0.00,0.00,0.00,0,0,0,0,0.0000,0.0000,0.00,0.00,0.00,0.000,0.000,0.000,0.000,0.000,0.000,0.00,0.00,0.00,0.0,0.0,
361,1768207191800,74432,36.00,0.00,31.56,0.00,0.00,0.00,0.00,0.00,0,0,0,0,0.0000,0.0000,0.00,0.00,0.00,0.000,0.000,0.000,0.000,0.000,0.000,0.00,0.00,0.00,0.0,0.0,
362,1768207192000,74632,48.00,0.00,32.00,0.00,0.00,0.00,0.00,0.00,0,0,0,0,0.0000,0.0000,0.00,0.00,0.00,0.000,0.000,0.000,0.000,0.000,0.000,0.00,0.00,0.00,0.0,0.0,
363,1768207192200,74832,60.00,0.00,31.87,0.26,0.00,0.00,0.00,0.00,0,0,0,0,0.0000,0.0000,0.00,0.00,0.00,0.000,0.000,0.000,0.000,0.000,0.000,0.00,0.00,0.00,0.0,0.0,
364,1768207192400,75032,12.00,0.00,32.00,0.00,0.00,0.00,0.00,0.00,0,0,0,0,0.0000,0.0000,0.00,0.00,0.00,0.000,0.000,0.000,0.000,0.000,0.000,0.00,0.00,0.00,0.0,0.0,
365,1768207193600,75232,42.00,0.00,31.81,0.02,0.00,0.00,0.00,0.00,0,0,0,0,0.0000,0.0000,0.00,0.00,0.00,0.000,0.000,0.000,0.000,0.000,0.000,0.00,0.00,0.00,0.0,0.0,
366,1768207193800,75432,42.00,0.00,31.89,0.00,0.00,0.00,0.00,0.00,0,0,0,0,0.0000,0.0000,0.00,0.00,0.00,0.000,0.000,0.000,0.000,0.000,0.000,0.00,0.00,0.00,0.0,0.0,
367,1768207194000,75632,24.00,0.00,32.03,0.00,0.00,0.00,0.00,0.00,0,0,0,0,0.0000,0.0000,0.00,0.00,0.00,0.000,0.000,0.000,0.000,0.000,0.000,0.00,0.00,0.00,0.0,0.0,
368,1768207194200,75832,36.00,0.00,31.78,0.04,0.00,0.00,0.00,0.00,0,0,0,0,0.0000,0.0000,0.00,0.00,0.00,0.000,0.000,0.000,0.000,0.000,0.000,0.00,0.00,0.00,0.0,0.0,
369,1768207194400,76032,12.00,0.00,31.89,0.00,0.00,0.00,0.00,0.00,0,0,0,0,0.0000,0.0000,0.00,0.00,0.00,0.000,0.000,0.000,0.000,0.000,0.000,0.00,0.00,0.00,0.0,0.0,
370,1768207195600,76232,66.00,0.00,31.79,0.00,0.00,0.00,0.00,0.00,0,0,0,0,0.0000,0.0000,0.00,0.00,0.00,0.000,0.000,0.000,0.000,0.000,0.000,0.00,0.00,0.00,0.0,0.0,
371,1768207195800,76432,36.00,0.00,32.11,0.05,0.00,0.00,0.00,0.00,0,0,0,0,0.0000,0.0000,0.00,0.00,0.00,0.000,0.000,0.000,0.000,0.000,0.000,0.00,0.00,0.00,0.0,0.0,
372,1768207196000,76632,36.00,0.00,31.90,0.00,0.00,0.00,0.00,0.00,0,0,0,0,0.0000,0.0000,0.00,0.00,0.00,0.000,0.000,0.000,0.000,0.000,0.000,0.00,0.00,0.00,0.0,0.0,
373,1768207196200,76832,60.00,0.00,31.89,0.00,0.00,0.00,0.00,0.00,0,0,0,0,0.0000,0.0000,0.00,0.00,0.00,0.000,0.000,0.000,0.000,0.000,0.000,0.00,0.00,0.00,0.0,0.0,
374,1768207196400,77032,48.00,0.00,32.03,0.00,0.00,0.00,0.00,0.00,0,0,0,0,0.0000,0.0000,0.00,0.00,0.00,0.000,0.000,0.000,0.000,0.000,0.000,0.00,0.00,0.00,0.0,0.0,
375,1768207197600,77232,6.00,0.00,32.33,0.00,0.00,0.00,0.00,0.00,0,0,0,0,0.0000,0.0000,0.00,0.00,0.00,0.000,0.000,0.000,0.000,0.000,0.000,0.00,0.00,0.00,0.0,0.0,
376,1768207197800,77432,24.00,0.00,31.81,0.31,0.00,0.00,0.00,0.00,0,0,0,0,0.0000,0.0000,0.00,0.00,0.00,0.000,0.000,0.000,0.000,0.000,0.000,0.00,0.00,0.00,0.0,0.0,
377,1768207198000,77632,42.00,0.00,32.07,0.00,0.00,0.00,0.00,0.00,0,0,0,0,0.0000,0.0000,0.00,0.00,0.00,0.000,0.000,0.000,0.000,0.000,0.000,0.00,0.00,0.00,0.0,0.0,
378,1768207198200,77832,66.00,0.00,32.33,0.38,0.00,0.00,0.00,0.00,0,0,0,0,0.0000,0.0000,0.00,0.00,0.00,0.000,0.000,0.000,0.000,0.000,0.000,0.00,0.00,0.00,0.0,0.0,
379,1768207198400,78032,36.00,0.00,31.85,0.00,0.00,0.00,0.00,0.00,0,0,0,0,0.0000,0.0000,0.00,0.00,0.00,0.000,0.000,0.000,0.000,0.000,0.000,0.00,0.00,0.00,0.0,0.0,
380,1768207199600,78232,36.00,0.00,31.63,0.00,0.00,0.00,0.00,0.00,0,0,0,0,0.0000,0.0000,0.00,0.00,0.00,0.000,0.000,0.000,0.000,0.000,0.000,0.00,0.00,0.00,0.0,0.0,
381,1768207199800,78432,30.00,0.00,32.00,0.02,0.00,0.00,0.00,0.00,0,0,0,0,0.0000,0.0000,0.00,0.00,0.00,0.000,0.000,0.000,0.000,0.000,0.000,0.00,0.00,0.00,0.0,0.0,
382,1768207200000,78632,36.00,0.00,31.78,0.00,0.00,0.00,0.00,0.00,0,0,0,0,0.0000,0.0000,0.00,0.00,0.00,0.000,0.000,0.000,0.000,0.000,0.000,0.00,0.00,0.00,0.0,0.0,
383,1768207200200,78832,24.00,0.00,31.87,0.00,0.00,0.00,0.00,0.00,0,0,0,0,0.0000,0.0000,0.00,0.00,0.00,0.000,0.000,0.000,0.000,0.000,0.000,0.00,0.00,0.00,0.0,0.0,
384,1768207200400,79032,30.00,0.00,32.58,0.00,0.00,0.00,0.00,0.00,0,0,0,0,0.0000,0.0000,0.00,0.00,0.00,0.000,0.000,0.000,0.000,0.000,0.000,0.00,0.00,0.00,0.0,0.0,
385,1768207201600,79232,48.00,0.00,31.59,0.00,0.00,0.00,0.00,0.00,0,0,0,0,0.0000,0.0000,0.00,0.00,0.00,0.000,0.000,0.000,0.000,0.000,0.000,0.00,0.00,0.00,0.0,0.0,
386,1768207201800,79432,36.00,0.00,31.83,0.00,0.00,0.00,0.00,0.00,0,0,0,0,0.0000,0.0000,0.00,0.00,0.00,0.000,0.000,0.000,0.000,0.000,0.000,0.00,0.00,0.00,0.0,0.0,
387,1768207202000,79632,78.00,0.00,31.63,0.02,0.00,0.00,0.00,0.00,0,0,0,0,0.0000,0.0000,0.00,0.00,0.00,0.000,0.000,0.000,0.000,0.000,0.000,0.00,0.00,0.00,0.0,0.0,
388,1768207202200,79832,60.00,0.00,31.87,0.00,0.00,0.00,0.00,0.00,0,0,0,0,0.0000,0.0000,0.00,0.00,0.00,0.000,0.000,0.000,0.000,0.000,0.000,0.00,0.00,0.00,0.0,0.0,
389,1768207202400,80032,42.00,0.00,31.79,0.09,0.00,0.00,0.00,0.00,0,0,0,0,0.0000,0.0000,0.00,0.00,0.00,0.000,0.000,0.000,0.000,0.000,0.000,0.00,0.00,0.00,0.0,0.0,
390,1768207203600,80232,36.00,0.00,32.07,0.00,0.00,0.00,0.00,0.00,0,0,0,0,0.0000,0.0000,0.00,0.00,0.00,0.000,0.000,0.000,0.000,0.000,0.000,0.00,0.00,0.00,0.0,0.0,
391,1768207203800,80432,24.00,0.00,32.00,0.00,0.00,0.00,0.00,0.00,0,0,0,0,0.0000,0.0000,0.00,0.00,0.00,0.000,0.000,0.000,0.000,0.000,0.000,0.00,0.00,0.00,0.0,0.0,
392,1768207204000,80632,18.00,0.00,31.78,0.20,0.00,0.00,0.00,0.00,0,0,0,0,0.0000,0.0000,0.00,0.00,0.00,0.000,0.000,0.000,0.000,0.000,0.000,0.00,0.00,0.00,0.0,0.0,
393,1768207204200,80832,48.00,0.00,32.22,0.00,0.00,0.00,0.00,0.00,0,0,0,0,0.0000,0.0000,0.00,0.00,0.00,0.000,0.000,0.000,0.000,0.000,0.000,0.00,0.00,0.00,0.0,0.0,
394,1768207204400,81032,24.00,0.00,32.00,0.00,0.00,0.00,0.00,0.00,0,0,0,0,0.0000,0.0000,0.00,0.00,0.00,0.000,0.000,0.000,0.000,0.000,0.000,0.00,0.00,0.00,0.0,0.0,
395,1768207205600,81232,30.00,0.00,31.83,0.00,0.00,0.00,0.00,0.00,0,0,0,0,0.0000,0.0000,0.00,0.00,0.00,0.000,0.000,0.000,0.000,0.000,0.000,0.00,0.00,0.00,0.0,0.0,
396,1768207205800,81432,66.00,0.00,30.95,1.37,0.00,0.00,0.00,0.00,0,0,0,0,0.0000,0.0000,0.00,0.00,0.00,0.000,0.000,0.000,0.000,0.000,0.000,0.00,0.00,0.00,0.0,0.0,
397,1768207206000,81632,24.00,0.00,31.36,0.00,0.00,0.00,0.00,0.00,0,0,0,0,0.0000,0.0000,0.00,0.00,0.00,0.000,0.000,0.000,0.000,0.000,0.000,0.00,0.00,0.00,0.0,0.0,
398,1768207206200,81832,78.00,0.00,31.81,0.00,0.00,0.00,0.00,0.00,0,0,0,0,0.0000,0.0000,0.00,0.00,0.00,0.000,0.000,0.000,0.000,0.000,0.000,0.00,0.00,0.00,0.0,0.0,
399,1768207206400,82032,60.00,0.00,32.09,0.00,0.00,0.00,0.00,0.00,0,0,0,0,0.0000,0.0000,0.00,0.00,0.00,0.000,0.000,0.000,0.000,0.000,0.000,0.00,0.00,0.00,0.0,0.0,
400,1768207207600,82232,24.00,0.00,31.89,0.00,0.00,0.00,0.00,0.00,0,0,0,0,0.0000,0.0000,0.00,0.00,0.00,0.000,0.000,0.000,0.000,0.000,0.000,0.00,0.00,0.00,0.0,0.0,
401,1768207207800,82432,24.00,0.00,32.29,0.00,0.00,0.00,0.00,0.00,0,0,0,0,0.0000,0.0000,0.00,0.00,0.00,0.000,0.000,0.000,0.000,0.000,0.000,0.00,0.00,0.00,0.0,0.0,
402,1768207208000,82632,30.00,0.00,32.44,0.00,0.00,0.00,0.00,0.00,0,0,0,0,0.0000,0.0000,0.00,0.00,0.00,0.000,0.000,0.000,0.000,0.000,0.000,0.00,0.00,0.00,0.0,0.0,
403,1768207208200,82832,36.00,0.00,31.61,0.02,0.00,0.00,0.00,0.00,0,0,0,0,0.0000,0.0000,0.00,0.00,0.00,0.000,0.000,0.000,0.000,0.000,0.000,0.00,0.00,0.00,0.0,0.0,
404,1768207208400,83032,30.00,0.00,32.40,0.00,0.00,0.00,0.00,0.00,0,0,0,0,0.0000,0.0000,0.00,0.00,0.00,0.000,0.000,0.000,0.000,0.000,0.000,0.00,0.00,0.00,0.0,0.0,
405,1768207209600,83232,42.00,0.00,31.89,0.00,0.00,0.00,0.00,0.00,0,0,0,0,0.0000,0.0000,0.00,0.00,0.00,0.000,0.000,0.000,0.000,0.000,0.000,0.00,0.00,0.00,0.0,0.0,
406,1768207209800,83432,66.00,0.00,31.89,0.05,0.00,0.00,0.00,0.00,0,0,0,0,0.0000,0.0000,0.00,0.00,0.00,0.000,0.000,0.000,0.000,0.000,0.000,0.00,0.00,0.00,0.0,0.0,
407,1768207210000,83632,30.00,0.00,31.92,0.00,0.00,0.00,0.00,0.00,0,0,0,0,0.0000,0.0000,0.00,0.00,0.00,0.000,0.000,0.000,0.000,0.000,0.000,0.00,0.00,0.00,0.0,0.0,
408,1768207210200,83832,48.00,0.00,32.00,0.00,0.00,0.00,0.00,0.00,0,0,0,0,0.0000,0.0000,0.00,0.00,0.00,0.000,0.000,0.000,0.000,0.000,0.000,0.00,0.00,0.00,0.0,0.0,
409,1768207210400,84032,24.00,0.00,32.18,0.00,0.00,0.00,0.00,0.00,0,0,0,0,0.0000,0.0000,0.00,0.00,0.00,0.000,0.000,0.000,0.000,0.000,0.000,0.00,0.00,0.00,0.0,0.0,
410,1768207211600,84232,36.00,0.00,31.92,0.00,0.00,0.00,0.00,0.00,0,0,0,0,0.0000,0.0000,0.00,0.00,0.00,0.000,0.000,0.000,0.000,0.000,0.000,0.00,0.00,0.00,0.0,0.0,
411,1768207211800,84432,36.00,0.00,32.38,0.00,0.00,0.00,0.00,0.00,0,0,0,0,0.0000,0.0000,0.00,0.00,0.00,0.000,0.000,0.000,0.000,0.000,0.000,0.00,0.00,0.00,0.0,0.0,
412,1768207212000,84632,60.00,0.00,31.81,0.46,0.00,0.00,0.00,0.00,0,0,0,0,0.0000,0.0000,0.00,0.00,0.00,0.000,0.000,0.000,0.000,0.000,0.000,0.00,0.00,0.00,0.0,0.0,
413,1768207212200,84832,48.00,0.00,31.74,0.00,0.00,0.00,0.00,0.00,0,0,0,0,0.0000,0.0000,0.00,0.00,0.00,0.000,0.000,0.000,0.000,0.000,0.000,0.00,0.00,0.00,0.0,0.0,
414,1768207212400,85032,48.00,0.00,31.52,0.00,0.00,0.00,0.00,0.00,0,0,0,0,0.0000,0.0000,0.00,0.00,0.00,0.000,0.000,0.000,0.000,0.000,0.000,0.00,0.00,0.00,0.0,0.0,
415,1768207213600,85232,54.00,0.00,32.20,0.00,0.00,0.00,0.00,0.00,0,0,0,0,0.0000,0.0000,0.00,0.00,0.00,0.000,0.000,0.000,0.000,0.000,0.000,0.00,0.00,0.00,0.0,0.0,
416,1768207213800,85432,42.00,0.00,32.09,0.00,0.00,0.00,0.00,0.00,0,0,0,0,0.0000,0.0000,0.00,0.00,0.00,0.000,0.000,0.000,0.000,0.000,0.000,0.00,0.00,0.00,0.0,0.0,
417,1768207214000,85632,30.00,0.00,31.92,0.04,0.00,0.00,0.00,0.00,0,0,0,0,0.0000,0.0000,0.00,0.00,0.00,0.000,0.000,0.000,0.000,0.000,0.000,0.00,0.00,0.00,0.0,0.0,
418,1768207214200,85832,60.00,0.00,32.03,0.09,0.00,0.00,0.00,0.00,0,0,0,0,0.0000,0.0000,0.00,0.00,0.00,0.000,0.000,0.000,0.000,0.000,0.000,0.00,0.00,0.00,0.0,0.0,
419,1768207214400,86032,48.00,0.00,31.87,0.00,0.00,0.00,0.00,0.00,0,0,0,0,0.0000,0.0000,0.00,0.00,0.00,0.000,0.000,0.000,0.000,0.000,0.000,0.00,0.00,0.00,0.0,0.0,
420,1768207215600,86232,60.00,0.00,31.89,0.02,0.00,0.00,0.00,0.00,0,0,0,0,0.0000,0.0000,0.00,0.00,0.00,0.000,0.000,0.000,0.000,0.000,0.000,0.00,0.00,0.00,0.0,0.0,
421,1768207215800,86432,90.00,0.00,32.16,0.00,0.00,0.00,0.00,0.00,0,0,0,0,0.0000,0.0000,0.00,0.00,0.00,0.000,0.000,0.000,0.000,0.000,0.000,0.00,0.00,0.00,0.0,0.0,
422,1768207216000,86632,30.00,0.00,32.22,0.00,0.00,0.00,0.00,0.00,0,0,0,0,0.0000,0.0000,0.00,0.00,0.00,0.000,0.000,0.000,0.000,0.000,0.000,0.00,0.00,0.00,0.0,0.0,
423,1768207216200,86832,48.00,0.00,31.79,0.02,0.00,0.00,0.00,0.00,0,0,0,0,0.0000,0.0000,0.00,0.00,0.00,0.000,0.000,0.000,0.000,0.000,0.000,0.00,0.00,0.00,0.0,0.0,
424,1768207216400,87032,48.00,0.00,32.07,0.00,0.00,0.00,0.00,0.00,0,0,0,0,0.0000,0.0000,0.00,0.00,0.00,0.000,0.000,0.000,0.000,0.000,0.000,0.00,0.00,0.00,0.0,0.0,
425,1768207217600,87232,60.00,0.00,31.63,0.00,0.00,0.00,0.00,0.00,0,0,0,0,0.0000,0.0000,0.00,0.00,0.00,0.000,0.000,0.000,0.000,0.000,0.000,0.00,0.00,0.00,0.0,0.0,
426,1768207217800,87432,36.00,0.00,31.85,0.02,0.00,0.00,0.00,0.00,0,0,0,0,0.0000,0.0000,0.00,0.00,0.00,0.000,0.000,0.000,0.000,0.000,0.000,0.00,0.00,0.00,0.0,0.0,
427,1768207218000,87632,42.00,0.00,31.78,0.16,0.00,0.00,0.00,0.00,0,0,0,0,0.0000,0.0000,0.00,0.00,0.00,0.000,0.000,0.000,0.000,0.000,0.000,0.00,0.00,0.00,0.0,0.0,
428,1768207218200,87832,42.00,0.00,31.58,0.00,0.00,0.00,0.00,0.00,0,0,0,0,0.0000,0.0000,0.00,0.00,0.00,0.000,0.000,0.000,0.000,0.000,0.000,0.00,0.00,0.00,0.0,0.0,
429,1768207218400,88032,54.00,0.00,32.03,0.00,0.00,0.00,0.00,0.00,0,0,0,0,0.0000,0.0000,0.00,0.00,0.00,0.000,0.000,0.000,0.000,0.000,0.000,0.00,0.00,0.00,0.0,0.0,
430,1768207219600,88232,36.00,0.00,31.52,0.00,0.00,0.00,0.00,0.00,0,0,0,0,0.0000,0.0000,0.00,0.00,0.00,0.000,0.000,0.000,0.000,0.000,0.000,0.00,0.00,0.00,0.0,0.0,
431,1768207219800,88432,18.00,0.00,31.76,0.00,0.00,0.00,0.00,0.00,0,0,0,0,0.0000,0.0000,0.00,0.00,0.00,0.000,0.000,0.000,0.000,0.000,0.000,0.00,0.00,0.00,0.0,0.0,
432,1768207220000,88632,6.00,0.00,31.89,0.00,0.00,0.00,0.00,0.00,0,0,0,0,0.0000,0.0000,0.00,0.00,0.00,0.000,0.000,0.000,0.000,0.000,0.000,0.00,0.00,0.00,0.0,0.0,
433,1768207220200,88832,60.00,0.00,32.03,0.00,0.00,0.00,0.00,0.00,0,0,0,0,0.0000,0.0000,0.00,0.00,0.00,0.000,0.000,0.000,0.000,0.000,0.000,0.00,0.00,0.00,0.0,0.0,
434,1768207220400,89032,42.00,0.00,32.03,0.05,0.00,0.00,0.00,0.00,0,0,0,0,0.0000,0.0000,0.00,0.00,0.00,0.000,0.000,0.000,0.000,0.000,0.000,0.00,0.00,0.00,0.0,0.0,
435,1768207221600,89232,36.00,0.00,31.48,0.07,0.00,0.00,0.00,0.00,0,0,0,0,0.0000,0.0000,0.00,0.00,0.00,0.000,0.000,0.000,0.000,0.000,0.000,0.00,0.00,0.00,0.0,0.0,
436,1768207221800,89432,18.00,0.00,31.98,0.00,0.00,0.00,0.00,0.00,0,0,0,0,0.0000,0.0000,0.00,0.00,0.00,0.000,0.000,0.000,0.000,0.000,0.000,0.00,0.00,0.00,0.0,0.0,
437,1768207222000,89632,36.00,0.00,32.00,0.02,0.00,0.00,0.00,0.00,0,0,0,0,0.0000,0.0000,0.00,0.00,0.00,0.000,0.000,0.000,0.000,0.000,0.000,0.00,0.00,0.00,0.0,0.0,
438,1768207222200,89832,30.00,0.00,31.41,7.20,0.00,0.00,0.00,0.00,0,0,0,0,0.0000,0.0000,0.00,0.00,0.00,0.000,0.000,0.000,0.000,0.000,0.000,0.00,0.00,0.00,0.0,0.0,
439,1768207222400,90032,48.00,0.00,31.54,1.01,0.00,0.00,0.00,0.00,0,0,0,0,0.0000,0.0000,0.00,0.00,0.00,0.000,0.000,0.000,0.000,0.000,0.000,0.00,0.00,0.00,0.0,0.0,
440,1768207223600,90232,48.00,0.00,31.89,0.00,0.00,0.00,0.00,0.00,0,0,0,0,0.0000,0.0000,0.00,0.00,0.00,0.000,0.000,0.000,0.000,0.000,0.000,0.00,0.00,0.00,0.0,0.0,
441,1768207223800,90432,42.00,0.00,31.89,0.00,0.00,0.00,0.00,0.00,0,0,0,0,0.0000,0.0000,0.00,0.00,0.00,0.000,0.000,0.000,0.000,0.000,0.000,0.00,0.00,0.00,0.0,0.0,
442,1768207224000,90632,24.00,0.00,31.78,0.00,0.00,0.00,0.00,0.00,0,0,0,0,0.0000,0.0000,0.00,0.00,0.00,0.000,0.000,0.000,0.000,0.000,0.000,0.00,0.00,0.00,0.0,0.0,
443,1768207224200,90832,30.00,0.00,31.81,0.13,0.00,0.00,0.00,0.00,0,0,0,0,0.0000,0.0000,0.00,0.00,0.00,0.000,0.000,0.000,0.000,0.000,0.000,0.00,0.00,0.00,0.0,0.0,
444,1768207224400,91032,18.00,0.00,31.89,0.40,0.00,0.00,0.00,0.00,0,0,0,0,0.0000,0.0000,0.00,0.00,0.00,0.000,0.000,0.000,0.000,0.000,0.000,0.00,0.00,0.00,0.0,0.0,
445,1768207225600,91232,30.00,0.00,31.87,0.05,0.00,0.00,0.00,0.00,0,0,0,0,0.0000,0.0000,0.00,0.00,0.00,0.000,0.000,0.000,0.000,0.000,0.000,0.00,0.00,0.00,0.0,0.0,
446,1768207225800,91432,48.00,0.00,32.03,0.00,0.00,0.00,0.00,0.00,0,0,0,0,0.0000,0.0000,0.00,0.00,0.00,0.000,0.000,0.000,0.000,0.000,0.000,0.00,0.00,0.00,0.0,0.0,
447,1768207226000,91632,42.00,0.00,32.00,0.00,0.00,0.00,0.00,0.00,0,0,0,0,0.0000,0.0000,0.00,0.00,0.00,0.000,0.000,0.000,0.000,0.000,0.000,0.00,0.00,0.00,0.0,0.0,
448,1768207226200,91832,24.00,0.00,32.07,0.00,0.00,0.00,0.00,0.00,0,0,0,0,0.0000,0.0000,0.00,0.00,0.00,0.000,0.000,0.000,0.000,0.000,0.000,0.00,0.00,0.00,0.0,0.0,
449,1768207226400,92032,42.00,0.00,32.07,0.05,0.00,0.00,0.00,0.00,0,0,0,0,0.0000,0.0000,0.00,0.00,0.00,0.000,0.000,0.000,0.000,0.000,0.000,0.00,0.00,0.00,0.0,0.0,
450,1768207227600,92232,24.00,0.00,31.74,0.13,0.00,0.00,0.00,0.00,0,0,0,0,0.0000,0.0000,0.00,0.00,0.00,0.000,0.000,0.000,0.000,0.000,0.000,0.00,0.00,0.00,0.0,0.0,
451,1768207227800,92432,42.00,0.00,32.18,0.00,0.00,0.00,0.00,0.00,0,0,0,0,0.0000,0.0000,0.00,0.00,0.00,0.000,0.000,0.000,0.000,0.000,0.000,0.00,0.00,0.00,0.0,0.0,
452,1768207228000,92632,18.00,0.00,32.00,0.00,0.00,0.00,0.00,0.00,0,0,0,0,0.0000,0.0000,0.00,0.00,0.00,0.000,0.000,0.000,0.000,0.000,0.000,0.00,0.00,0.00,0.0,0.0,
453,1768207228200,92832,30.00,0.00,32.14,0.00,0.00,0.00,0.00,0.00,0,0,0,0,0.0000,0.0000,0.00,0.00,0.00,0.000,0.000,0.000,0.000,0.000,0.000,0.00,0.00,0.00,0.0,0.0,
454,1768207228400,93032,12.00,0.00,32.36,0.00,0.00,0.00,0.00,0.00,0,0,0,0,0.0000,0.0000,0.00,0.00,0.00,0.000,0.000,0.000,0.000,0.000,0.000,0.00,0.00,0.00,0.0,0.0,
455,1768207229600,93232,36.00,0.00,31.92,0.00,0.00,0.00,0.00,0.00,0,0,0,0,0.0000,0.0000,0.00,0.00,0.00,0.000,0.000,0.000,0.000,0.000,0.000,0.00,0.00,0.00,0.0,0.0,
456,1768207229800,93432,6.00,0.00,31.56,0.00,0.00,0.00,0.00,0.00,0,0,0,0,0.0000,0.0000,0.00,0.00,0.00,0.000,0.000,0.000,0.000,0.000,0.000,0.00,0.00,0.00,0.0,0.0,
457,1768207230000,93632,12.00,0.00,32.18,0.00,0.00,0.00,0.00,0.00,0,0,0,0,0.0000,0.0000,0.00,0.00,0.00,0.000,0.000,0.000,0.000,0.000,0.000,0.00,0.00,0.00,0.0,0.0,
458,1768207230200,93832,12.00,0.00,31.90,0.00,0.00,0.00,0.00,0.00,0,0,0,0,0.0000,0.0000,0.00,0.00,0.00,0.000,0.000,0.000,0.000,0.000,0.000,0.00,0.00,0.00,0.0,0.0,
459,1768207230400,94032,36.00,0.00,32.34,0.00,0.00,0.00,0.00,0.00,0,0,0,0,0.0000,0.0000,0.00,0.00,0.00,0.000,0.000,0.000,0.000,0.000,0.000,0.00,0.00,0.00,0.0,0.0,
460,1768207231600,94232,24.00,0.00,32.03,0.00,0.00,0.00,0.00,0.00,0,0,0,0,0.0000,0.0000,0.00,0.00,0.00,0.000,0.000,0.000,0.000,0.000,0.000,0.00,0.00,0.00,0.0,0.0,
461,1768207231800,94432,42.00,0.00,32.16,0.00,0.00,0.00,0.00,0.00,0,0,0,0,0.0000,0.0000,0.00,0.00,0.00,0.000,0.000,0.000,0.000,0.000,0.000,0.00,0.00,0.00,0.0,0.0,
462,1768207232000,94632,30.00,0.00,32.07,0.02,0.00,0.00,0.00,0.00,0,0,0,0,0.0000,0.0000,0.00,0.00,0.00,0.000,0.000,0.000,0.000,0.000,0.000,0.00,0.00,0.00,0.0,0.0,
463,1768207232200,94832,24.00,0.00,31.92,0.00,0.00,0.00,0.00,0.00,0,0,0,0,0.0000,0.0000,0.00,0.00,0.00,0.000,0.000,0.000,0.000,0.000,0.000,0.00,0.00,0.00,0.0,0.0,
464,1768207232400,95032,30.00,0.00,32.05,0.09,0.00,0.00,0.00,0.00,0,0,0,0,0.0000,0.0000,0.00,0.00,0.00,0.000,0.000,0.000,0.000,0.000,0.000,0.00,0.00,0.00,0.0,0.0,
465,1768207233600,95232,30.00,0.00,31.78,0.00,0.00,0.00,0.00,0.00,0,0,0,0,0.0000,0.0000,0.00,0.00,0.00,0.000,0.000,0.000,0.000,0.000,0.000,0.00,0.00,0.00,0.0,0.0,
466,1768207233800,95432,18.00,0.00,32.09,0.07,0.00,0.00,0.00,0.00,0,0,0,0,0.0000,0.0000,0.00,0.00,0.00,0.000,0.000,0.000,0.000,0.000,0.000,0.00,0.00,0.00,0.0,0.0,
467,1768207234000,95632,36.00,0.00,31.85,0.00,0.00,0.00,0.00,0.00,0,0,0,0,0.0000,0.0000,0.00,0.00,0.00,0.000,0.000,0.000,0.000,0.000,0.000,0.00,0.00,0.00,0.0,0.0,
468,1768207234200,95832,0.00,0.00,32.00,0.20,0.00,0.00,0.00,0.00,0,0,0,0,0.0000,0.0000,0.00,0.00,0.00,0.000,0.000,0.000,0.000,0.000,0.000,0.00,0.00,0.00,0.0,0.0,
469,1768207234400,96032,36.00,0.00,32.00,0.00,0.00,0.00,0.00,0.00,0,0,0,0,0.0000,0.0000,0.00,0.00,0.00,0.000,0.000,0.000,0.000,0.000,0.000,0.00,0.00,0.00,0.0,0.0,
470,1768207235600,96232,24.00,0.00,31.63,0.24,0.00,0.00,0.00,0.00,0,0,0,0,0.0000,0.0000,0.00,0.00,0.00,0.000,0.000,0.000,0.000,0.000,0.000,0.00,0.00,0.00,0.0,0.0,
471,1768207235800,96432,36.00,0.00,31.83,0.09,0.00,0.00,0.00,0.00,0,0,0,0,0.0000,0.0000,0.00,0.00,0.00,0.000,0.000,0.000,0.000,0.000,0.000,0.00,0.00,0.00,0.0,0.0,
472,1768207236000,96632,54.00,0.00,31.89,0.02,0.00,0.00,0.00,0.00,0,0,0,0,0.0000,0.0000,0.00,0.00,0.00,0.000,0.000,0.000,0.000,0.000,0.000,0.00,0.00,0.00,0.0,0.0,
473,1768207236200,96832,24.00,0.00,31.89,0.00,0.00,0.00,0.00,0.00,0,0,0,0,0.0000,0.0000,0.00,0.00,0.00,0.000,0.000,0.000,0.000,0.000,0.000,0.00,0.00,0.00,0.0,0.0,
474,1768207236400,97032,36.00,0.00,32.00,0.02,0.00,0.00,0.00,0.00,0,0,0,0,0.0000,0.0000,0.00,0.00,0.00,0.000,0.000,0.000,0.000,0.000,0.000,0.00,0.00,0.00,0.0,0.0,
475,1768207237600,97232,42.00,0.00,31.81,0.00,0.00,0.00,0.00,0.00,0,0,0,0,0.0000,0.0000,0.00,0.00,0.00,0.000,0.000,0.000,0.000,0.000,0.000,0.00,0.00,0.00,0.0,0.0,
476,1768207237800,97432,36.00,0.00,32.34,0.20,0.00,0.00,0.00,0.00,0,0,0,0,0.0000,0.0000,0.00,0.00,0.00,0.000,0.000,0.000,0.000,0.000,0.000,0.00,0.00,0.00,0.0,0.0,
477,1768207238000,97632,60.00,0.00,31.59,0.00,0.00,0.00,0.00,0.00,0,0,0,0,0.0000,0.0000,0.00,0.00,0.00,0.000,0.000,0.000,0.000,0.000,0.000,0.00,0.00,0.00,0.0,0.0,
478,1768207238200,97832,66.00,0.00,31.92,0.29,0.00,0.00,0.00,0.00,0,0,0,0,0.0000,0.0000,0.00,0.00,0.00,0.000,0.000,0.000,0.000,0.000,0.000,0.00,0.00,0.00,0.0,0.0,
479,1768207238400,98032,24.00,0.00,31.59,0.00,0.00,0.00,0.00,0.00,0,0,0,0,0.0000,0.0000,0.00,0.00,0.00,0.000,0.000,0.000,0.000,0.000,0.000,0.00,0.00,0.00,0.0,0.0,
480,1768207239600,98232,36.00,0.00,31.89,0.00,0.00,0.00,0.00,0.00,0,0,0,0,0.0000,0.0000,0.00,0.00,0.00,0.000,0.000,0.000,0.000,0.000,0.000,0.00,0.00,0.00,0.0,0.0,
481,1768207239800,98432,30.00,0.00,31.81,0.00,0.00,0.00,0.00,0.00,0,0,0,0,0.0000,0.0000,0.00,0.00,0.00,0.000,0.000,0.000,0.000,0.000,0.000,0.00,0.00,0.00,0.0,0.0,
482,1768207240000,98632,6.00,0.00,30.88,0.15,0.00,0.00,0.00,0.00,0,0,0,0,0.0000,0.0000,0.00,0.00,0.00,0.000,0.000,0.000,0.000,0.000,0.000,0.00,0.00,0.00,0.0,0.0,
483,1768207240200,98832,48.00,0.00,31.78,0.00,0.00,0.00,0.00,0.00,0,0,0,0,0.0000,0.0000,0.00,0.00,0.00,0.000,0.000,0.000,0.000,0.000,0.000,0.00,0.00,0.00,0.0,0.0,
484,1768207240400,99032,36.00,0.00,32.01,0.00,0.00,0.00,0.00,0.00,0,0,0,0,0.0000,0.0000,0.00,0.00,0.00,0.000,0.000,0.000,0.000,0.000,0.000,0.00,0.00,0.00,0.0,0.0,
485,1768207241600,99232,6.00,0.00,31.63,0.20,0.00,0.00,0.00,0.00,0,0,0,0,0.0000,0.0000,0.00,0.00,0.00,0.000,0.000,0.000,0.000,0.000,0.000,0.00,0.00,0.00,0.0,0.0,
486,1768207241800,99432,42.00,0.00,31.85,0.13,0.00,0.00,0.00,0.00,0,0,0,0,0.0000,0.0000,0.00,0.00,0.00,0.000,0.000,0.000,0.000,0.000,0.000,0.00,0.00,0.00,0.0,0.0,
487,1768207242000,99632,36.00,0.00,32.29,0.00,0.00,0.00,0.00,0.00,0,0,0,0,0.0000,0.0000,0.00,0.00,0.00,0.000,0.000,0.000,0.000,0.000,0.000,0.00,0.00,0.00,0.0,0.0,
488,1768207242200,99832,30.00,0.00,32.33,0.00,0.00,0.00,0.00,0.00,0,0,0,0,0.0000,0.0000,0.00,0.00,0.00,0.000,0.000,0.000,0.000,0.000,0.000,0.00,0.00,0.00,0.0,0.0,
489,1768207242400,100032,30.00,0.00,32.11,0.00,0.00,0.00,0.00,0.00,0,0,0,0,0.0000,0.0000,0.00,0.00,0.00,0.000,0.000,0.000,0.000,0.000,0.000,0.00,0.00,0.00,0.0,0.0,
490,1768207243600,100232,18.00,0.00,31.96,0.00,0.00,0.00,0.00,0.00,0,0,0,0,0.0000,0.0000,0.00,0.00,0.00,0.000,0.000,0.000,0.000,0.000,0.000,0.00,0.00,0.00,0.0,0.0,
491,1768207243800,100432,54.00,0.00,31.81,0.00,0.00,0.00,0.00,0.00,0,0,0,0,0.0000,0.0000,0.00,0.00,0.00,0.000,0.000,0.000,0.000,0.000,0.000,0.00,0.00,0.00,0.0,0.0,
492,1768207244000,100632,6.00,0.00,31.85,0.00,0.00,0.00,0.00,0.00,0,0,0,0,0.0000,0.0000,0.00,0.00,0.00,0.000,0.000,0.000,0.000,0.000,0.000,0.00,0.00,0.00,0.0,0.0,
493,1768207244200,100832,6.00,0.00,32.07,0.00,0.00,0.00,0.00,0.00,0,0,0,0,0.0000,0.0000,0.00,0.00,0.00,0.000,0.000,0.000,0.000,0.000,0.000,0.00,0.00,0.00,0.0,0.0,
494,1768207244400,101032,48.00,0.00,32.14,0.00,0.00,0.00,0.00,0.00,0,0,0,0,0.0000,0.0000,0.00,0.00,0.00,0.000,0.000,0.000,0.000,0.000,0.000,0.00,0.00,0.00,0.0,0.0,
495,1768207245600,101232,66.00,0.00,32.11,0.22,0.00,0.00,0.00,0.00,0,0,0,0,0.0000,0.0000,0.00,0.00,0.00,0.000,0.000,0.000,0.000,0.000,0.000,0.00,0.00,0.00,0.0,0.0,
496,1768207245800,101432,42.00,0.00,32.16,0.00,0.00,0.00,0.00,0.00,0,0,0,0,0.0000,0.0000,0.00,0.00,0.00,0.000,0.000,0.000,0.000,0.000,0.000,0.00,0.00,0.00,0.0,0.0,
497,1768207246000,101632,30.00,0.00,31.96,0.00,0.00,0.00,0.00,0.00,0,0,0,0,0.0000,0.0000,0.00,0.00,0.00,0.000,0.000,0.000,0.000,0.000,0.000,0.00,0.00,0.00,0.0,0.0,
498,1768207246200,101832,36.00,0.00,32.03,0.05,0.00,0.00,0.00,0.00,0,0,0,0,0.0000,0.0000,0.00,0.00,0.00,0.000,0.000,0.000,0.000,0.000,0.000,0.00,0.00,0.00,0.0,0.0,
499,1768207246400,102032,36.00,0.00,32.14,0.11,0.00,0.00,0.00,0.00,0,0,0,0,0.0000,0.0000,0.00,0.00,0.00,0.000,0.000,0.000,0.000,0.000,0.000,0.00,0.00,0.00,0.0,0.0,
500,1768207247600,102232,18.00,0.00,32.00,0.00,0.00,0.00,0.00,0.00,0,0,0,0,0.0000,0.0000,0.00,0.00,0.00,0.000,0.000,0.000,0.000,0.000,0.000,0.00,0.00,0.00,0.0,0.0,
501,1768207247800,102432,42.00,0.00,32.07,0.00,0.00,0.00,0.00,0.00,0,0,0,0,0.0000,0.0000,0.00,0.00,0.00,0.000,0.000,0.000,0.000,0.000,0.000,0.00,0.00,0.00,0.0,0.0,
502,1768207248000,102632,60.00,0.00,32.34,0.00,0.00,0.00,0.00,0.00,0,0,0,0,0.0000,0.0000,0.00,0.00,0.00,0.000,0.000,0.000,0.000,0.000,0.000,0.00,0.00,0.00,0.0,0.0,
503,1768207248200,102832,24.00,0.00,32.58,0.00,0.00,0.00,0.00,0.00,0,0,0,0,0.0000,0.0000,0.00,0.00,0.00,0.000,0.000,0.000,0.000,0.000,0.000,0.00,0.00,0.00,0.0,0.0,
504,1768207248400,103032,30.00,0.00,31.87,0.00,0.00,0.00,0.00,0.00,0,0,0,0,0.0000,0.0000,0.00,0.00,0.00,0.000,0.000,0.000,0.000,0.000,0.000,0.00,0.00,0.00,0.0,0.0,
505,1768207249600,103232,30.00,0.00,32.16,0.00,0.00,0.00,0.00,0.00,0,0,0,0,0.0000,0.0000,0.00,0.00,0.00,0.000,0.000,0.000,0.000,0.000,0.000,0.00,0.00,0.00,0.0,0.0,
506,1768207249800,103432,0.00,0.00,32.33,0.00,0.00,0.00,0.00,0.00,0,0,0,0,0.0000,0.0000,0.00,0.00,0.00,0.000,0.000,0.000,0.000,0.000,0.000,0.00,0.00,0.00,0.0,0.0,
507,1768207250000,103632,24.00,0.00,31.89,0.00,0.00,0.00,0.00,0.00,0,0,0,0,0.0000,0.0000,0.00,0.00,0.00,0.000,0.000,0.000,0.000,0.000,0.000,0.00,0.00,0.00,0.0,0.0,
508,1768207250200,103832,42.00,0.00,31.48,0.00,0.00,0.00,0.00,0.00,0,0,0,0,0.0000,0.0000,0.00,0.00,0.00,0.000,0.000,0.000,0.000,0.000,0.000,0.00,0.00,0.00,0.0,0.0,
509,1768207250400,104032,24.00,0.00,31.81,0.09,0.00,0.00,0.00,0.00,0,0,0,0,0.0000,0.0000,0.00,0.00,0.00,0.000,0.000,0.000,0.000,0.000,0.000,0.00,0.00,0.00,0.0,0.0,
510,1768207251600,104232,36.00,0.00,32.14,0.00,0.00,0.00,0.00,0.00,0,0,0,0,0.0000,0.0000,0.00,0.00,0.00,0.000,0.000,0.000,0.000,0.000,0.000,0.00,0.00,0.00,0.0,0.0,
511,1768207251800,104432,54.00,0.00,32.18,0.00,0.00,0.00,0.00,0.00,0,0,0,0,0.0000,0.0000,0.00,0.00,0.00,0.000,0.000,0.000,0.000,0.000,0.000,0.00,0.00,0.00,0.0,0.0,
512,1768207252000,104632,42.00,0.00,31.96,0.00,0.00,0.00,0.00,0.00,0,0,0,0,0.0000,0.0000,0.00,0.00,0.00,0.000,0.000,0.000,0.000,0.000,0.000,0.00,0.00,0.00,0.0,0.0,
513,1768207252200,104832,48.00,0.00,31.52,0.09,0.00,0.00,0.00,0.00,0,0,0,0,0.0000,0.0000,0.00,0.00,0.00,0.000,0.000,0.000,0.000,0.000,0.000,0.00,0.00,0.00,0.0,0.0,
514,1768207252400,105032,48.00,0.00,32.11,0.79,0.00,0.00,0.00,0.00,0,0,0,0,0.0000,0.0000,0.00,0.00,0.00,0.000,0.000,0.000,0.000,0.000,0.000,0.00,0.00,0.00,0.0,0.0,
515,1768207253600,105232,24.00,0.00,31.76,0.00,0.00,0.00,0.00,0.00,0,0,0,0,0.0000,0.0000,0.00,0.00,0.00,0.000,0.000,0.000,0.000,0.000,0.000,0.00,0.00,0.00,0.0,0.0,
516,1768207253800,105432,36.00,0.00,31.81,0.00,0.00,0.00,0.00,0.00,0,0,0,0,0.0000,0.0000,0.00,0.00,0.00,0.000,0.000,0.000,0.000,0.000,0.000,0.00,0.00,0.00,0.0,0.0,
517,1768207254000,105632,30.00,0.00,31.79,0.31,0.00,0.00,0.00,0.00,0,0,0,0,0.0000,0.0000,0.00,0.00,0.00,0.000,0.000,0.000,0.000,0.000,0.000,0.00,0.00,0.00,0.0,0.0,
518,1768207254200,105832,24.00,0.00,31.78,0.00,0.00,0.00,0.00,0.00,0,0,0,0,0.0000,0.0000,0.00,0.00,0.00,0.000,0.000,0.000,0.000,0.000,0.000,0.00,0.00,0.00,0.0,0.0,
519,1768207254400,106032,24.00,0.00,31.85,0.00,0.00,0.00,0.00,0.00,0,0,0,0,0.0000,0.0000,0.00,0.00,0.00,0.000,0.000,0.000,0.000,0.000,0.000,0.00,0.00,0.00,0.0,0.0,
520,1768207255600,106232,66.00,0.00,32.03,0.11,0.00,0.00,0.00,0.00,0,0,0,0,0.0000,0.0000,0.00,0.00,0.00,0.000,0.000,0.000,0.000,0.000,0.000,0.00,0.00,0.00,0.0,0.0,
521,1768207255800,106432,36.00,0.00,31.92,0.02,0.00,0.00,0.00,0.00,0,0,0,0,0.0000,0.0000,0.00,0.00,0.00,0.000,0.000,0.000,0.000,0.000,0.000,0.00,0.00,0.00,0.0,0.0,
522,1768207256000,106632,18.00,0.00,32.33,0.00,0.00,0.00,0.00,0.00,0,0,0,0,0.0000,0.0000,0.00,0.00,0.00,0.000,0.000,0.000,0.000,0.000,0.000,0.00,0.00,0.00,0.0,0.0,
523,1768207256200,106832,24.00,0.00,31.43,4.27,0.00,0.00,0.00,0.00,0,0,0,0,0.0000,0.0000,0.00,0.00,0.00,0.000,0.000,0.000,0.000,0.000,0.000,0.00,0.00,0.00,0.0,0.0,
524,1768207256400,107032,18.00,0.00,31.25,1.08,0.00,0.00,0.00,0.00,0,0,0,0,0.0000,0.0000,0.00,0.00,0.00,0.000,0.000,0.000,0.000,0.000,0.000,0.00,0.00,0.00,0.0,0.0,
525,1768207257600,107232,18.00,0.00,31.56,0.00,0.00,0.00,0.00,0.00,0,0,0,0,0.0000,0.0000,0.00,0.00,0.00,0.000,0.000,0.000,0.000,0.000,0.000,0.00,0.00,0.00,0.0,0.0,
526,1768207257800,107432,24.00,0.00,32.07,0.00,0.00,0.00,0.00,0.00,0,0,0,0,0.0000,0.0000,0.00,0.00,0.00,0.000,0.000,0.000,0.000,0.000,0.000,0.00,0.00,0.00,0.0,0.0,
527,1768207258000,107632,36.00,0.00,32.07,0.00,0.00,0.00,0.00,0.00,0,0,0,0,0.0000,0.0000,0.00,0.00,0.00,0.000,0.000,0.000,0.000,0.000,0.000,0.00,0.00,0.00,0.0,0.0,
528,1768207258200,107832,24.00,0.00,32.00,0.11,0.00,0.00,0.00,0.00,0,0,0,0,0.0000,0.0000,0.00,0.00,0.00,0.000,0.000,0.000,0.000,0.000,0.000,0.00,0.00,0.00,0.0,0.0,
529,1768207258400,108032,6.00,0.00,32.14,0.00,0.00,0.00,0.00,0.00,0,0,0,0,0.0000,0.0000,0.00,0.00,0.00,0.000,0.000,0.000,0.000,0.000,0.000,0.00,0.00,0.00,0.0,0.0,
530,1768207259600,108232,24.00,0.00,31.98,0.00,0.00,0.00,0.00,0.00,0,0,0,0,0.0000,0.0000,0.00,0.00,0.00,0.000,0.000,0.000,0.000,0.000,0.000,0.00,0.00,0.00,0.0,0.0,
531,1768207259800,108432,36.00,0.00,32.00,0.00,0.00,0.00,0.00,0.00,0,0,0,0,0.0000,0.0000,0.00,0.00,0.00,0.000,0.000,0.000,0.000,0.000,0.000,0.00,0.00,0.00,0.0,0.0,
532,1768207260000,108632,36.00,0.00,32.11,0.00,0.00,0.00,0.00,0.00,0,0,0,0,0.0000,0.0000,0.00,0.00,0.00,0.000,0.000,0.000,0.000,0.000,0.000,0.00,0.00,0.00,0.0,0.0,
533,1768207260200,108832,24.00,0.00,31.87,0.07,0.00,0.00,0.00,0.00,0,0,0,0,0.0000,0.0000,0.00,0.00,0.00,0.000,0.000,0.000,0.000,0.000,0.000,0.00,0.00,0.00,0.0,0.0,
534,1768207260400,109032,18.00,0.00,31.85,0.00,0.00,0.00,0.00,0.00,0,0,0,0,0.0000,0.0000,0.00,0.00,0.00,0.000,0.000,0.000,0.000,0.000,0.000,0.00,0.00,0.00,0.0,0.0,
535,1768207261600,109232,42.00,0.00,32.25,0.00,0.00,0.00,0.00,0.00,0,0,0,0,0.0000,0.0000,0.00,0.00,0.00,0.000,0.000,0.000,0.000,0.000,0.000,0.00,0.00,0.00,0.0,0.0,
536,1768207261800,109432,30.00,0.00,32.33,0.00,0.00,0.00,0.00,0.00,0,0,0,0,0.0000,0.0000,0.00,0.00,0.00,0.000,0.000,0.000,0.000,0.000,0.000,0.00,0.00,0.00,0.0,0.0,
537,1768207262000,109632,6.00,0.00,32.40,0.00,0.00,0.00,0.00,0.00,0,0,0,0,0.0000,0.0000,0.00,0.00,0.00,0.000,0.000,0.000,0.000,0.000,0.000,0.00,0.00,0.00,0.0,0.0,
538,1768207262200,109832,30.00,0.00,31.76,0.00,0.00,0.00,0.00,0.00,0,0,0,0,0.0000,0.0000,0.00,0.00,0.00,0.000,0.000,0.000,0.000,0.000,0.000,0.00,0.00,0.00,0.0,0.0,
539,1768207262400,110032,60.00,0.00,32.01,0.00,0.00,0.00,0.00,0.00,0,0,0,0,0.0000,0.0000,0.00,0.00,0.00,0.000,0.000,0.000,0.000,0.000,0.000,0.00,0.00,0.00,0.0,0.0,
540,1768207263600,110232,54.00,0.00,31.81,0.20,0.00,0.00,0.00,0.00,0,0,0,0,0.0000,0.0000,0.00,0.00,0.00,0.000,0.000,0.000,0.000,0.000,0.000,0.00,0.00,0.00,0.0,0.0,
541,1768207263800,110432,18.00,0.00,31.65,0.13,0.00,0.00,0.00,0.00,0,0,0,0,0.0000,0.0000,0.00,0.00,0.00,0.000,0.000,0.000,0.000,0.000,0.000,0.00,0.00,0.00,0.0,0.0,
542,1768207264000,110632,30.00,0.00,32.07,0.00,0.00,0.00,0.00,0.00,0,0,0,0,0.0000,0.0000,0.00,0.00,0.00,0.000,0.000,0.000,0.000,0.000,0.000,0.00,0.00,0.00,0.0,0.0,
543,1768207264200,110832,18.00,0.00,32.00,0.00,0.00,0.00,0.00,0.00,0,0,0,0,0.0000,0.0000,0.00,0.00,0.00,0.000,0.000,0.000,0.000,0.000,0.000,0.00,0.00,0.00,0.0,0.0,
544,1768207264400,111032,30.00,0.00,31.56,0.00,0.00,0.00,0.00,0.00,0,0,0,0,0.0000,0.0000,0.00,0.00,0.00,0.000,0.000,0.000,0.000,0.000,0.000,0.00,0.00,0.00,0.0,0.0,
545,1768207265600,111232,24.00,0.00,32.11,0.00,0.00,0.00,0.00,0.00,0,0,0,0,0.0000,0.0000,0.00,0.00,0.00,0.000,0.000,0.000,0.000,0.000,0.000,0.00,0.00,0.00,0.0,0.0,
546,1768207265800,111432,42.00,0.00,31.96,0.00,0.00,0.00,0.00,0.00,0,0,0,0,0.0000,0.0000,0.00,0.00,0.00,0.000,0.000,0.000,0.000,0.000,0.000,0.00,0.00,0.00,0.0,0.0,
547,1768207266000,111632,30.00,0.00,32.38,0.00,0.00,0.00,0.00,0.00,0,0,0,0,0.0000,0.0000,0.00,0.00,0.00,0.000,0.000,0.000,0.000,0.000,0.000,0.00,0.00,0.00,0.0,0.0,
548,1768207266200,111832,54.00,0.00,32.58,0.00,0.00,0.00,0.00,0.00,0,0,0,0,0.0000,0.0000,0.00,0.00,0.00,0.000,0.000,0.000,0.000,0.000,0.000,0.00,0.00,0.00,0.0,0.0,
549,1768207266400,112032,24.00,0.00,32.11,0.05,0.00,0.00,0.00,0.00,0,0,0,0,0.0000,0.0000,0.00,0.00,0.00,0.000,0.000,0.000,0.000,0.000,0.000,0.00,0.00,0.00,0.0,0.0,
550,1768207267600,112232,12.00,0.00,31.81,0.00,0.00,0.00,0.00,0.00,0,0,0,0,0.0000,0.0000,0.00,0.00,0.00,0.000,0.000,0.000,0.000,0.000,0.000,0.00,0.00,0.00,0.0,0.0,
551,1768207267800,112432,48.00,0.00,32.38,0.00,0.00,0.00,0.00,0.00,0,0,0,0,0.0000,0.0000,0.00,0.00,0.00,0.000,0.000,0.000,0.000,0.000,0.000,0.00,0.00,0.00,0.0,0.0,
552,1768207268000,112632,36.00,0.00,31.89,0.00,0.00,0.00,0.00,0.00,0,0,0,0,0.0000,0.0000,0.00,0.00,0.00,0.000,0.000,0.000,0.000,0.000,0.000,0.00,0.00,0.00,0.0,0.0,
553,1768207268200,112832,12.00,0.00,32.03,0.02,0.00,0.00,0.00,0.00,0,0,0,0,0.0000,0.0000,0.00,0.00,0.00,0.000,0.000,0.000,0.000,0.000,0.000,0.00,0.00,0.00,0.0,0.0,
554,1768207268400,113032,18.00,0.00,31.90,0.00,0.00,0.00,0.00,0.00,0,0,0,0,0.0000,0.0000,0.00,0.00,0.00,0.000,0.000,0.000,0.000,0.000,0.000,0.00,0.00,0.00,0.0,0.0,
555,1768207269600,113232,6.00,0.00,32.33,0.00,0.00,0.00,0.00,0.00,0,0,0,0,0.0000,0.0000,0.00,0.00,0.00,0.000,0.000,0.000,0.000,0.000,0.000,0.00,0.00,0.00,0.0,0.0,
556,1768207269800,113432,12.00,0.00,32.01,0.00,0.00,0.00,0.00,0.00,0,0,0,0,0.0000,0.0000,0.00,0.00,0.00,0.000,0.000,0.000,0.000,0.000,0.000,0.00,0.00,0.00,0.0,0.0,
557,1768207270000,113632,12.00,0.00,32.34,0.00,0.00,0.00,0.00,0.00,0,0,0,0,0.0000,0.0000,0.00,0.00,0.00,0.000,0.000,0.000,0.000,0.000,0.000,0.00,0.00,0.00,0.0,0.0,
558,1768207270200,113832,36.00,0.00,32.00,0.00,0.00,0.00,0.00,0.00,0,0,0,0,0.0000,0.0000,0.00,0.00,0.00,0.000,0.000,0.000,0.000,0.000,0.000,0.00,0.00,0.00,0.0,0.0,
559,1768207270400,114032,12.00,0.00,32.07,0.00,0.00,0.00,0.00,0.00,0,0,0,0,0.0000,0.0000,0.00,0.00,0.00,0.000,0.000,0.000,0.000,0.000,0.000,0.00,0.00,0.00,0.0,0.0,
560,1768207271600,114232,18.00,0.00,31.89,0.11,0.00,0.00,0.00,0.00,0,0,0,0,0.0000,0.0000,0.00,0.00,0.00,0.000,0.000,0.000,0.000,0.000,0.000,0.00,0.00,0.00,0.0,0.0,
561,1768207271800,114432,18.00,0.00,32.00,0.00,0.00,0.00,0.00,0.00,0,0,0,0,0.0000,0.0000,0.00,0.00,0.00,0.000,0.000,0.000,0.000,0.000,0.000,0.00,0.00,0.00,0.0,0.0,
562,1768207272000,114632,30.00,0.00,32.14,0.00,0.00,0.00,0.00,0.00,0,0,0,0,0.0000,0.0000,0.00,0.00,0.00,0.000,0.000,0.000,0.000,0.000,0.000,0.00,0.00,0.00,0.0,0.0,
563,1768207272200,114832,12.00,0.00,32.03,0.02,0.00,0.00,0.00,0.00,0,0,0,0,0.0000,0.0000,0.00,0.00,0.00,0.000,0.000,0.000,0.000,0.000,0.000,0.00,0.00,0.00,0.0,0.0,
564,1768207272400,115032,30.00,0.00,32.36,0.00,0.00,0.00,0.00,0.00,0,0,0,0,0.0000,0.0000,0.00,0.00,0.00,0.000,0.000,0.000,0.000,0.000,0.000,0.00,0.00,0.00,0.0,0.0,
565,1768207273600,115232,24.00,0.00,31.87,0.00,0.00,0.00,0.00,0.00,0,0,0,0,0.0000,0.0000,0.00,0.00,0.00,0.000,0.000,0.000,0.000,0.000,0.000,0.00,0.00,0.00,0.0,0.0,
566,1768207273800,115432,18.00,0.00,32.33,0.00,0.00,0.00,0.00,0.00,0,0,0,0,0.0000,0.0000,0.00,0.00,0.00,0.000,0.000,0.000,0.000,0.000,0.000,0.00,0.00,0.00,0.0,0.0,
567,1768207274000,115632,36.00,0.00,31.30,0.66,0.00,0.00,0.00,0.00,0,0,0,0,0.0000,0.0000,0.00,0.00,0.00,0.000,0.000,0.000,0.000,0.000,0.000,0.00,0.00,0.00,0.0,0.0,
568,1768207274200,115832,24.00,0.00,31.89,0.05,0.00,0.00,0.00,0.00,0,0,0,0,0.0000,0.0000,0.00,0.00,0.00,0.000,0.000,0.000,0.000,0.000,0.000,0.00,0.00,0.00,0.0,0.0,
569,1768207274400,116032,18.00,0.00,31.85,0.00,0.00,0.00,0.00,0.00,0,0,0,0,0.0000,0.0000,0.00,0.00,0.00,0.000,0.000,0.000,0.000,0.000,0.000,0.00,0.00,0.00,0.0,0.0,
570,1768207275600,116232,12.00,0.00,31.87,0.00,0.00,0.00,0.00,0.00,0,0,0,0,0.0000,0.0000,0.00,0.00,0.00,0.000,0.000,0.000,0.000,0.000,0.000,0.00,0.00,0.00,0.0,0.0,
571,1768207275800,116432,24.00,0.00,31.63,0.22,0.00,0.00,0.00,0.00,0,0,0,0,0.0000,0.0000,0.00,0.00,0.00,0.000,0.000,0.000,0.000,0.000,0.000,0.00,0.00,0.00,0.0,0.0,
572,1768207276000,116632,6.00,0.00,32.18,0.05,0.00,0.00,0.00,0.00,0,0,0,0,0.0000,0.0000,0.00,0.00,0.00,0.000,0.000,0.000,0.000,0.000,0.000,0.00,0.00,0.00,0.0,0.0,
573,1768207276200,116832,12.00,0.00,32.16,0.00,0.00,0.00,0.00,0.00,0,0,0,0,0.0000,0.0000,0.00,0.00,0.00,0.000,0.000,0.000,0.000,0.000,0.000,0.00,0.00,0.00,0.0,0.0,
574,1768207276400,117032,0.00,0.00,31.85,0.00,0.00,0.00,0.00,0.00,0,0,0,0,0.0000,0.0000,0.00,0.00,0.00,0.000,0.000,0.000,0.000,0.000,0.000,0.00,0.00,0.00,0.0,0.0,
575,1768207277600,117232,36.00,0.00,32.22,0.09,0.00,0.00,0.00,0.00,0,0,0,0,0.0000,0.0000,0.00,0.00,0.00,0.000,0.000,0.000,0.000,0.000,0.000,0.00,0.00,0.00,0.0,0.0,
576,1768207277800,117432,18.00,0.00,32.00,0.00,0.00,0.00,0.00,0.00,0,0,0,0,0.0000,0.0000,0.00,0.00,0.00,0.000,0.000,0.000,0.000,0.000,0.000,0.00,0.00,0.00,0.0,0.0,
577,1768207278000,117632,36.00,0.00,31.59,0.00,0.00,0.00,0.00,0.00,0,0,0,0,0.0000,0.0000,0.00,0.00,0.00,0.000,0.000,0.000,0.000,0.000,0.000,0.00,0.00,0.00,0.0,0.0,
578,1768207278200,117832,18.00,0.00,31.89,0.00,0.00,0.00,0.00,0.00,0,0,0,0,0.0000,0.0000,0.00,0.00,0.00,0.000,0.000,0.000,0.000,0.000,0.000,0.00,0.00,0.00,0.0,0.0,
579,1768207278400,118032,18.00,0.00,32.11,0.16,0.00,0.00,0.00,0.00,0,0,0,0,0.0000,0.0000,0.00,0.00,0.00,0.000,0.000,0.000,0.000,0.000,0.000,0.00,0.00,0.00,0.0,0.0,
580,1768207279600,118232,6.00,0.00,31.79,0.00,0.00,0.00,0.00,0.00,0,0,0,0,0.0000,0.0000,0.00,0.00,0.00,0.000,0.000,0.000,0.000,0.000,0.000,0.00,0.00,0.00,0.0,0.0,
581,1768207279800,118432,30.00,0.00,31.63,0.00,0.00,0.00,0.00,0.00,0,0,0,0,0.0000,0.0000,0.00,0.00,0.00,0.000,0.000,0.000,0.000,0.000,0.000,0.00,0.00,0.00,0.0,0.0,
582,1768207280000,118632,18.00,0.00,32.34,0.00,0.00,0.00,0.00,0.00,0,0,0,0,0.0000,0.0000,0.00,0.00,0.00,0.000,0.000,0.000,0.000,0.000,0.000,0.00,0.00,0.00,0.0,0.0,
583,1768207280200,118832,6.00,0.00,31.76,0.22,0.00,0.00,0.00,0.00,0,0,0,0,0.0000,0.0000,0.00,0.00,0.00,0.000,0.000,0.000,0.000,0.000,0.000,0.00,0.00,0.00,0.0,0.0,
584,1768207280400,119032,18.00,0.00,32.12,0.00,0.00,0.00,0.00,0.00,0,0,0,0,0.0000,0.0000,0.00,0.00,0.00,0.000,0.000,0.000,0.000,0.000,0.000,0.00,0.00,0.00,0.0,0.0,
585,1768207281600,119232,42.00,0.00,32.22,0.00,0.00,0.00,0.00,0.00,0,0,0,0,0.0000,0.0000,0.00,0.00,0.00,0.000,0.000,0.000,0.000,0.000,0.000,0.00,0.00,0.00,0.0,0.0,
586,1768207281800,119432,36.00,0.00,32.03,0.00,0.00,0.00,0.00,0.00,0,0,0,0,0.0000,0.0000,0.00,0.00,0.00,0.000,0.000,0.000,0.000,0.000,0.000,0.00,0.00,0.00,0.0,0.0,
587,1768207282000,119632,6.00,0.00,31.76,0.00,0.00,0.00,0.00,0.00,0,0,0,0,0.0000,0.0000,0.00,0.00,0.00,0.000,0.000,0.000,0.000,0.000,0.000,0.00,0.00,0.00,0.0,0.0,
588,1768207282200,119832,12.00,0.00,32.01,0.00,0.00,0.00,0.00,0.00,0,0,0,0,0.0000,0.0000,0.00,0.00,0.00,0.000,0.000,0.000,0.000,0.000,0.000,0.00,0.00,0.00,0.0,0.0,
589,1768207282400,120032,48.00,0.00,31.74,0.00,0.00,0.00,0.00,0.00,0,0,0,0,0.0000,0.0000,0.00,0.00,0.00,0.000,0.000,0.000,0.000,0.000,0.000,0.00,0.00,0.00,0.0,0.0,
590,1768207283600,120232,6.00,0.00,31.34,0.22,0.00,0.00,0.00,0.00,0,0,0,0,0.0000,0.0000,0.00,0.00,0.00,0.000,0.000,0.000,0.000,0.000,0.000,0.00,0.00,0.00,0.0,0.0,
591,1768207283800,120432,36.00,0.00,32.03,0.00,0.00,0.00,0.00,0.00,0,0,0,0,0.0000,0.0000,0.00,0.00,0.00,0.000,0.000,0.000,0.000,0.000,0.000,0.00,0.00,0.00,0.0,0.0,
592,1768207284000,120632,54.00,0.00,32.00,0.00,0.00,0.00,0.00,0.00,0,0,0,0,0.0000,0.0000,0.00,0.00,0.00,0.000,0.000,0.000,0.000,0.000,0.000,0.00,0.00,0.00,0.0,0.0,
593,1768207284200,120832,432.00,0.00,32.36,0.00,0.00,0.00,0.00,0.00,0,0,0,0,0.0000,0.0000,0.00,0.00,0.00,0.000,0.000,0.000,0.000,0.000,0.000,0.00,0.00,0.00,0.0,0.0,
594,1768207284400,121032,0.00,0.00,32.03,0.00,0.00,0.00,0.00,0.00,0,0,0,0,0.0000,0.0000,0.00,0.00,0.00,0.000,0.000,0.000,0.000,0.000,0.000,0.00,0.00,0.00,0.0,0.0,
595,1768207285600,121232,24.00,0.00,31.41,0.00,0.00,0.00,0.00,0.00,0,0,0,0,0.0000,0.0000,0.00,0.00,0.00,0.000,0.000,0.000,0.000,0.000,0.000,0.00,0.00,0.00,0.0,0.0,
596,1768207285800,121432,36.00,0.00,31.74,0.00,0.00,0.00,0.00,0.00,0,0,0,0,0.0000,0.0000,0.00,0.00,0.00,0.000,0.000,0.000,0.000,0.000,0.000,0.00,0.00,0.00,0.0,0.0,
597,1768207286000,121632,12.00,0.00,31.26,0.00,0.00,0.00,0.00,0.00,0,0,0,0,0.0000,0.0000,0.00,0.00,0.00,0.000,0.000,0.000,0.000,0.000,0.000,0.00,0.00,0.00,0.0,0.0,
598,1768207286200,121832,42.00,0.00,31.59,0.00,0.00,0.00,0.00,0.00,0,0,0,0,0.0000,0.0000,0.00,0.00,0.00,0.000,0.000,0.000,0.000,0.000,0.000,0.00,0.00,0.00,0.0,0.0,
599,1768207286400,122032,36.00,0.00,31.59,0.07,0.00,0.00,0.00,0.00,0,0,0,0,0.0000,0.0000,0.00,0.00,0.00,0.000,0.000,0.000,0.000,0.000,0.000,0.00,0.00,0.00,0.0,0.0,
600,1768207287600,122232,0.00,0.00,32.18,0.00,0.00,0.00,0.00,0.00,0,0,0,0,0.0000,0.0000,0.00,0.00,0.00,0.000,0.000,0.000,0.000,0.000,0.000,0.00,0.00,0.00,0.0,0.0,
601,1768207287800,122432,12.00,0.00,31.30,0.49,0.00,0.00,0.00,0.00,0,0,0,0,0.0000,0.0000,0.00,0.00,0.00,0.000,0.000,0.000,0.000,0.000,0.000,0.00,0.00,0.00,0.0,0.0,
602,1768207288000,122632,18.00,0.00,31.56,0.00,0.00,0.00,0.00,0.00,0,0,0,0,0.0000,0.0000,0.00,0.00,0.00,0.000,0.000,0.000,0.000,0.000,0.000,0.00,0.00,0.00,0.0,0.0,
603,1768207288200,122832,30.00,0.00,31.58,0.00,0.00,0.00,0.00,0.00,0,0,0,0,0.0000,0.0000,0.00,0.00,0.00,0.000,0.000,0.000,0.000,0.000,0.000,0.00,0.00,0.00,0.0,0.0,
604,1768207288400,123032,30.00,0.00,31.52,0.00,0.00,0.00,0.00,0.00,0,0,0,0,0.0000,0.0000,0.00,0.00,0.00,0.000,0.000,0.000,0.000,0.000,0.000,0.00,0.00,0.00,0.0,0.0,
605,1768207289600,123232,18.00,0.00,31.54,0.00,0.00,0.00,0.00,0.00,0,0,0,0,0.0000,0.0000,0.00,0.00,0.00,0.000,0.000,0.000,0.000,0.000,0.000,0.00,0.00,0.00,0.0,0.0,
606,1768207289800,123432,18.00,0.00,31.79,0.00,0.00,0.00,0.00,0.00,0,0,0,0,0.0000,0.0000,0.00,0.00,0.00,0.000,0.000,0.000,0.000,0.000,0.000,0.00,0.00,0.00,0.0,0.0,
607,1768207290000,123632,12.00,0.00,31.43,0.00,0.00,0.00,0.00,0.00,0,0,0,0,0.0000,0.0000,0.00,0.00,0.00,0.000,0.000,0.000,0.000,0.000,0.000,0.00,0.00,0.00,0.0,0.0,
608,1768207290200,123832,18.00,0.00,31.59,0.00,0.00,0.00,0.00,0.00,0,0,0,0,0.0000,0.0000,0.00,0.00,0.00,0.000,0.000,0.000,0.000,0.000,0.000,0.00,0.00,0.00,0.0,0.0,
609,1768207290400,124032,42.00,0.00,31.85,0.00,0.00,0.00,0.00,0.00,0,0,0,0,0.0000,0.0000,0.00,0.00,0.00,0.000,0.000,0.000,0.000,0.000,0.000,0.00,0.00,0.00,0.0,0.0,
610,1768207291600,124232,24.00,0.00,31.01,0.00,0.00,0.00,0.00,0.00,0,0,0,0,0.0000,0.0000,0.00,0.00,0.00,0.000,0.000,0.000,0.000,0.000,0.000,0.00,0.00,0.00,0.0,0.0,
611,1768207291800,124432,24.00,0.00,31.74,0.00,0.00,0.00,0.00,0.00,0,0,0,0,0.0000,0.0000,0.00,0.00,0.00,0.000,0.000,0.000,0.000,0.000,0.000,0.00,0.00,0.00,0.0,0.0,
612,1768207292000,124632,36.00,0.00,32.47,0.00,0.00,0.00,0.00,0.00,0,0,0,0,0.0000,0.0000,0.00,0.00,0.00,0.000,0.000,0.000,0.000,0.000,0.000,0.00,0.00,0.00,0.0,0.0,
613,1768207292200,124832,18.00,0.00,31.48,0.35,0.00,0.00,0.00,0.00,0,0,0,0,0.0000,0.0000,0.00,0.00,0.00,0.000,0.000,0.000,0.000,0.000,0.000,0.00,0.00,0.00,0.0,0.0,
614,1768207292400,125032,24.00,0.00,31.89,0.00,0.00,0.00,0.00,0.00,0,0,0,0,0.0000,0.0000,0.00,0.00,0.00,0.000,0.000,0.000,0.000,0.000,0.000,0.00,0.00,0.00,0.0,0.0,
615,1768207293600,125232,18.00,0.00,31.92,0.00,0.00,0.00,0.00,0.00,0,0,0,0,0.0000,0.0000,0.00,0.00,0.00,0.000,0.000,0.000,0.000,0.000,0.000,0.00,0.00,0.00,0.0,0.0,
616,1768207293800,125432,18.00,0.00,31.87,0.00,0.00,0.00,0.00,0.00,0,0,0,0,0.0000,0.0000,0.00,0.00,0.00,0.000,0.000,0.000,0.000,0.000,0.000,0.00,0.00,0.00,0.0,0.0,
617,1768207294000,125632,24.00,0.00,31.74,0.00,0.00,0.00,0.00,0.00,0,0,0,0,0.0000,0.0000,0.00,0.00,0.00,0.000,0.000,0.000,0.000,0.000,0.000,0.00,0.00,0.00,0.0,0.0,
618,1768207294200,125832,12.00,0.00,31.81,0.00,0.00,0.00,0.00,0.00,0,0,0,0,0.0000,0.0000,0.00,0.00,0.00,0.000,0.000,0.000,0.000,0.000,0.000,0.00,0.00,0.00,0.0,0.0,
619,1768207294400,126032,12.00,0.00,32.14,0.00,0.00,0.00,0.00,0.00,0,0,0,0,0.0000,0.0000,0.00,0.00,0.00,0.000,0.000,0.000,0.000,0.000,0.000,0.00,0.00,0.00,0.0,0.0,
620,1768207295600,126232,36.00,0.00,32.00,0.00,0.00,0.00,0.00,0.00,0,0,0,0,0.0000,0.0000,0.00,0.00,0.00,0.000,0.000,0.000,0.000,0.000,0.000,0.00,0.00,0.00,0.0,0.0,
621,1768207295800,126432,12.00,0.00,32.14,0.00,0.00,0.00,0.00,0.00,0,0,0,0,0.0000,0.0000,0.00,0.00,0.00,0.000,0.000,0.000,0.000,0.000,0.000,0.00,0.00,0.00,0.0,0.0,
622,1768207296000,126632,24.00,0.00,31.81,0.00,0.00,0.00,0.00,0.00,0,0,0,0,0.0000,0.0000,0.00,0.00,0.00,0.000,0.000,0.000,0.000,0.000,0.000,0.00,0.00,0.00,0.0,0.0,
623,1768207296200,126832,42.00,0.00,32.29,0.00,0.00,0.00,0.00,0.00,0,0,0,0,0.0000,0.0000,0.00,0.00,0.00,0.000,0.000,0.000,0.000,0.000,0.000,0.00,0.00,0.00,0.0,0.0,
624,1768207296400,127032,30.00,0.00,31.78,0.16,0.00,0.00,0.00,0.00,0,0,0,0,0.0000,0.0000,0.00,0.00,0.00,0.000,0.000,0.000,0.000,0.000,0.000,0.00,0.00,0.00,0.0,0.0,
625,1768207297600,127232,24.00,0.00,32.05,0.00,0.00,0.00,0.00,0.00,0,0,0,0,0.0000,0.0000,0.00,0.00,0.00,0.000,0.000,0.000,0.000,0.000,0.000,0.00,0.00,0.00,0.0,0.0,
626,1768207297800,127432,24.00,0.00,31.90,0.00,0.00,0.00,0.00,0.00,0,0,0,0,0.0000,0.0000,0.00,0.00,0.00,0.000,0.000,0.000,0.000,0.000,0.000,0.00,0.00,0.00,0.0,0.0,
627,1768207298000,127632,24.00,0.00,31.85,0.00,0.00,0.00,0.00,0.00,0,0,0,0,0.0000,0.0000,0.00,0.00,0.00,0.000,0.000,0.000,0.000,0.000,0.000,0.00,0.00,0.00,0.0,0.0,
628,1768207298200,127832,6.00,0.00,31.96,0.00,0.00,0.00,0.00,0.00,0,0,0,0,0.0000,0.0000,0.00,0.00,0.00,0.000,0.000,0.000,0.000,0.000,0.000,0.00,0.00,0.00,0.0,0.0,
629,1768207298400,128032,42.00,0.00,31.74,0.00,0.00,0.00,0.00,0.00,0,0,0,0,0.0000,0.0000,0.00,0.00,0.00,0.000,0.000,0.000,0.000,0.000,0.000,0.00,0.00,0.00,0.0,0.0,
630,1768207299600,128232,30.00,0.00,32.27,0.00,0.00,0.00,0.00,0.00,0,0,0,0,0.0000,0.0000,0.00,0.00,0.00,0.000,0.000,0.000,0.000,0.000,0.000,0.00,0.00,0.00,0.0,0.0,
631,1768207299800,128432,24.00,0.00,32.11,0.00,0.00,0.00,0.00,0.00,0,0,0,0,0.0000,0.0000,0.00,0.00,0.00,0.000,0.000,0.000,0.000,0.000,0.000,0.00,0.00,0.00,0.0,0.0,
632,1768207300000,128632,30.00,0.00,32.00,0.00,0.00,0.00,0.00,0.00,0,0,0,0,0.0000,0.0000,0.00,0.00,0.00,0.000,0.000,0.000,0.000,0.000,0.000,0.00,0.00,0.00,0.0,0.0,
633,1768207300200,128832,48.00,0.00,32.12,0.00,0.00,0.00,0.00,0.00,0,0,0,0,0.0000,0.0000,0.00,0.00,0.00,0.000,0.000,0.000,0.000,0.000,0.000,0.00,0.00,0.00,0.0,0.0,
634,1768207300400,129032,18.00,0.00,32.00,0.00,0.00,0.00,0.00,0.00,0,0,0,0,0.0000,0.0000,0.00,0.00,0.00,0.000,0.000,0.000,0.000,0.000,0.000,0.00,0.00,0.00,0.0,0.0,
635,1768207301600,129232,12.00,0.00,32.20,0.09,0.00,0.00,0.00,0.00,0,0,0,0,0.0000,0.0000,0.00,0.00,0.00,0.000,0.000,0.000,0.000,0.000,0.000,0.00,0.00,0.00,0.0,0.0,
636,1768207301800,129432,48.00,0.00,31.74,0.00,0.00,0.00,0.00,0.00,0,0,0,0,0.0000,0.0000,0.00,0.00,0.00,0.000,0.000,0.000,0.000,0.000,0.000,0.00,0.00,0.00,0.0,0.0,
637,1768207302000,129632,24.00,0.00,31.92,0.00,0.00,0.00,0.00,0.00,0,0,0,0,0.0000,0.0000,0.00,0.00,0.00,0.000,0.000,0.000,0.000,0.000,0.000,0.00,0.00,0.00,0.0,0.0,
638,1768207302200,129832,6.00,0.00,31.63,0.00,0.00,0.00,0.00,0.00,0,0,0,0,0.0000,0.0000,0.00,0.00,0.00,0.000,0.000,0.000,0.000,0.000,0.000,0.00,0.00,0.00,0.0,0.0,
639,1768207302400,130032,24.00,0.00,31.56,0.00,0.00,0.00,0.00,0.00,0,0,0,0,0.0000,0.0000,0.00,0.00,0.00,0.000,0.000,0.000,0.000,0.000,0.000,0.00,0.00,0.00,0.0,0.0,
640,1768207303600,130232,30.00,0.00,32.03,0.00,0.00,0.00,0.00,0.00,0,0,0,0,0.0000,0.0000,0.00,0.00,0.00,0.000,0.000,0.000,0.000,0.000,0.000,0.00,0.00,0.00,0.0,0.0,
641,1768207303800,130432,12.00,0.00,31.85,0.00,0.00,0.00,0.00,0.00,0,0,0,0,0.0000,0.0000,0.00,0.00,0.00,0.000,0.000,0.000,0.000,0.000,0.000,0.00,0.00,0.00,0.0,0.0,
642,1768207304000,130632,24.00,0.00,32.25,0.00,0.00,0.00,0.00,0.00,0,0,0,0,0.0000,0.0000,0.00,0.00,0.00,0.000,0.000,0.000,0.000,0.000,0.000,0.00,0.00,0.00,0.0,0.0,
643,1768207304200,130832,0.00,0.00,32.12,0.02,0.00,0.00,0.00,0.00,0,0,0,0,0.0000,0.0000,0.00,0.00,0.00,0.000,0.000,0.000,0.000,0.000,0.000,0.00,0.00,0.00,0.0,0.0,
644,1768207304400,131032,30.00,0.00,31.76,0.00,0.00,0.00,0.00,0.00,0,0,0,0,0.0000,0.0000,0.00,0.00,0.00,0.000,0.000,0.000,0.000,0.000,0.000,0.00,0.00,0.00,0.0,0.0,
645,1768207305600,131232,36.00,0.00,31.92,0.02,0.00,0.00,0.00,0.00,0,0,0,0,0.0000,0.0000,0.00,0.00,0.00,0.000,0.000,0.000,0.000,0.000,0.000,0.00,0.00,0.00,0.0,0.0,
646,1768207305800,131432,30.00,0.00,31.89,0.00,0.00,0.00,0.00,0.00,0,0,0,0,0.0000,0.0000,0.00,0.00,0.00,0.000,0.000,0.000,0.000,0.000,0.000,0.00,0.00,0.00,0.0,0.0,
647,1768207306000,131632,0.00,0.00,32.33,0.00,0.00,0.00,0.00,0.00,0,0,0,0,0.0000,0.0000,0.00,0.00,0.00,0.000,0.000,0.000,0.000,0.000,0.000,0.00,0.00,0.00,0.0,0.0,
648,1768207306200,131832,36.00,0.00,32.01,0.00,0.00,0.00,0.00,0.00,0,0,0,0,0.0000,0.0000,0.00,0.00,0.00,0.000,0.000,0.000,0.000,0.000,0.000,0.00,0.00,0.00,0.0,0.0,
649,1768207306400,132032,30.00,0.00,32.18,0.00,0.00,0.00,0.00,0.00,0,0,0,0,0.0000,0.0000,0.00,0.00,0.00,0.000,0.000,0.000,0.000,0.000,0.000,0.00,0.00,0.00,0.0,0.0,
650,1768207307600,132232,18.00,0.00,32.40,0.00,0.00,0.00,0.00,0.00,0,0,0,0,0.0000,0.0000,0.00,0.00,0.00,0.000,0.000,0.000,0.000,0.000,0.000,0.00,0.00,0.00,0.0,0.0,
651,1768207307800,132432,12.00,0.00,31.74,0.00,0.00,0.00,0.00,0.00,0,0,0,0,0.0000,0.0000,0.00,0.00,0.00,0.000,0.000,0.000,0.000,0.000,0.000,0.00,0.00,0.00,0.0,0.0,
652,1768207308000,132632,18.00,0.00,31.92,1.54,0.00,0.00,0.00,0.00,0,0,0,0,0.0000,0.0000,0.00,0.00,0.00,0.000,0.000,0.000,0.000,0.000,0.000,0.00,0.00,0.00,0.0,0.0,
653,1768207308200,132832,0.00,0.00,30.79,3.02,0.00,0.00,0.00,0.00,0,0,0,0,0.0000,0.0000,0.00,0.00,0.00,0.000,0.000,0.000,0.000,0.000,0.000,0.00,0.00,0.00,0.0,0.0,
654,1768207308400,133032,18.00,0.00,31.56,0.00,0.00,0.00,0.00,0.00,0,0,0,0,0.0000,0.0000,0.00,0.00,0.00,0.000,0.000,0.000,0.000,0.000,0.000,0.00,0.00,0.00,0.0,0.0,
655,1768207309600,133232,18.00,0.00,32.40,0.00,0.00,0.00,0.00,0.00,0,0,0,0,0.0000,0.0000,0.00,0.00,0.00,0.000,0.000,0.000,0.000,0.000,0.000,0.00,0.00,0.00,0.0,0.0,
656,1768207309800,133432,6.00,0.00,31.85,0.00,0.00,0.00,0.00,0.00,0,0,0,0,0.0000,0.0000,0.00,0.00,0.00,0.000,0.000,0.000,0.000,0.000,0.000,0.00,0.00,0.00,0.0,0.0,
657,1768207310000,133632,18.00,0.00,32.40,0.00,0.00,0.00,0.00,0.00,0,0,0,0,0.0000,0.0000,0.00,0.00,0.00,0.000,0.000,0.000,0.000,0.000,0.000,0.00,0.00,0.00,0.0,0.0,
658,1768207310200,133832,12.00,0.00,31.96,0.00,0.00,0.00,0.00,0.00,0,0,0,0,0.0000,0.0000,0.00,0.00,0.00,0.000,0.000,0.000,0.000,0.000,0.000,0.00,0.00,0.00,0.0,0.0,
659,1768207310400,134032,24.00,0.00,32.42,0.00,0.00,0.00,0.00,0.00,0,0,0,0,0.0000,0.0000,0.00,0.00,0.00,0.000,0.000,0.000,0.000,0.000,0.000,0.00,0.00,0.00,0.0,0.0,
660,1768207311600,134232,6.00,0.00,31.76,0.00,0.00,0.00,0.00,0.00,0,0,0,0,0.0000,0.0000,0.00,0.00,0.00,0.000,0.000,0.000,0.000,0.000,0.000,0.00,0.00,0.00,0.0,0.0,
661,1768207311800,134432,24.00,0.00,31.92,0.00,0.00,0.00,0.00,0.00,0,0,0,0,0.0000,0.0000,0.00,0.00,0.00,0.000,0.000,0.000,0.000,0.000,0.000,0.00,0.00,0.00,0.0,0.0,
662,1768207312000,134632,18.00,0.00,32.07,0.09,0.00,0.00,0.00,0.00,0,0,0,0,0.0000,0.0000,0.00,0.00,0.00,0.000,0.000,0.000,0.000,0.000,0.000,0.00,0.00,0.00,0.0,0.0,
663,1768207312200,134832,24.00,0.00,32.07,0.00,0.00,0.00,0.00,0.00,0,0,0,0,0.0000,0.0000,0.00,0.00,0.00,0.000,0.000,0.000,0.000,0.000,0.000,0.00,0.00,0.00,0.0,0.0,
664,1768207312400,135032,24.00,0.00,32.29,0.00,0.00,0.00,0.00,0.00,0,0,0,0,0.0000,0.0000,0.00,0.00,0.00,0.000,0.000,0.000,0.000,0.000,0.000,0.00,0.00,0.00,0.0,0.0,
665,1768207313600,135232,24.00,0.00,31.63,0.00,0.00,0.00,0.00,0.00,0,0,0,0,0.0000,0.0000,0.00,0.00,0.00,0.000,0.000,0.000,0.000,0.000,0.000,0.00,0.00,0.00,0.0,0.0,
666,1768207313800,135432,30.00,0.00,31.85,0.20,0.00,0.00,0.00,0.00,0,0,0,0,0.0000,0.0000,0.00,0.00,0.00,0.000,0.000,0.000,0.000,0.000,0.000,0.00,0.00,0.00,0.0,0.0,
667,1768207314000,135632,30.00,0.00,31.79,0.48,0.00,0.00,0.00,0.00,0,0,0,0,0.0000,0.0000,0.00,0.00,0.00,0.000,0.000,0.000,0.000,0.000,0.000,0.00,0.00,0.00,0.0,0.0,
668,1768207314200,135832,6.00,0.00,32.00,0.00,0.00,0.00,0.00,0.00,0,0,0,0,0.0000,0.0000,0.00,0.00,0.00,0.000,0.000,0.000,0.000,0.000,0.000,0.00,0.00,0.00,0.0,0.0,
669,1768207314400,136032,12.00,0.00,31.63,0.00,0.00,0.00,0.00,0.00,0,0,0,0,0.0000,0.0000,0.00,0.00,0.00,0.000,0.000,0.000,0.000,0.000,0.000,0.00,0.00,0.00,0.0,0.0,
670,1768207315600,136232,6.00,0.00,32.00,0.00,0.00,0.00,0.00,0.00,0,0,0,0,0.0000,0.0000,0.00,0.00,0.00,0.000,0.000,0.000,0.000,0.000,0.000,0.00,0.00,0.00,0.0,0.0,
671,1768207315800,136432,0.00,0.00,31.81,0.00,0.00,0.00,0.00,0.00,0,0,0,0,0.0000,0.0000,0.00,0.00,0.00,0.000,0.000,0.000,0.000,0.000,0.000,0.00,0.00,0.00,0.0,0.0,
672,1768207316000,136632,0.00,0.00,32.18,0.00,0.00,0.00,0.00,0.00,0,0,0,0,0.0000,0.0000,0.00,0.00,0.00,0.000,0.000,0.000,0.000,0.000,0.000,0.00,0.00,0.00,0.0,0.0,
673,1768207316200,136832,18.00,0.00,31.87,0.13,0.00,0.00,0.00,0.00,0,0,0,0,0.0000,0.0000,0.00,0.00,0.00,0.000,0.000,0.000,0.000,0.000,0.000,0.00,0.00,0.00,0.0,0.0,
674,1768207316400,137032,6.00,0.00,31.85,0.24,0.00,0.00,0.00,0.00,0,0,0,0,0.0000,0.0000,0.00,0.00,0.00,0.000,0.000,0.000,0.000,0.000,0.000,0.00,0.00,0.00,0.0,0.0,
675,1768207317600,137232,24.00,0.00,31.85,0.13,0.00,0.00,0.00,0.00,0,0,0,0,0.0000,0.0000,0.00,0.00,0.00,0.000,0.000,0.000,0.000,0.000,0.000,0.00,0.00,0.00,0.0,0.0,
676,1768207317800,137432,24.00,0.00,31.81,0.05,0.00,0.00,0.00,0.00,0,0,0,0,0.0000,0.0000,0.00,0.00,0.00,0.000,0.000,0.000,0.000,0.000,0.000,0.00,0.00,0.00,0.0,0.0,
677,1768207318000,137632,18.00,0.00,31.85,0.00,0.00,0.00,0.00,0.00,0,0,0,0,0.0000,0.0000,0.00,0.00,0.00,0.000,0.000,0.000,0.000,0.000,0.000,0.00,0.00,0.00,0.0,0.0,
678,1768207318200,137832,18.00,0.00,32.00,0.00,0.00,0.00,0.00,0.00,0,0,0,0,0.0000,0.0000,0.00,0.00,0.00,0.000,0.000,0.000,0.000,0.000,0.000,0.00,0.00,0.00,0.0,0.0,
679,1768207318400,138032,18.00,0.00,32.11,0.00,0.00,0.00,0.00,0.00,0,0,0,0,0.0000,0.0000,0.00,0.00,0.00,0.000,0.000,0.000,0.000,0.000,0.000,0.00,0.00,0.00,0.0,0.0,
680,1768207319600,138232,18.00,0.00,31.92,0.00,0.00,0.00,0.00,0.00,0,0,0,0,0.0000,0.0000,0.00,0.00,0.00,0.000,0.000,0.000,0.000,0.000,0.000,0.00,0.00,0.00,0.0,0.0,
681,1768207319800,138432,24.00,0.00,31.92,0.02,0.00,0.00,0.00,0.00,0,0,0,0,0.0000,0.0000,0.00,0.00,0.00,0.000,0.000,0.000,0.000,0.000,0.000,0.00,0.00,0.00,0.0,0.0,
682,1768207320000,138632,24.00,0.00,31.89,0.00,0.00,0.00,0.00,0.00,0,0,0,0,0.0000,0.0000,0.00,0.00,0.00,0.000,0.000,0.000,0.000,0.000,0.000,0.00,0.00,0.00,0.0,0.0,
683,1768207320200,138832,18.00,0.00,32.47,0.00,0.00,0.00,0.00,0.00,0,0,0,0,0.0000,0.0000,0.00,0.00,0.00,0.000,0.000,0.000,0.000,0.000,0.000,0.00,0.00,0.00,0.0,0.0,
684,1768207320400,139032,18.00,0.00,31.89,0.07,0.00,0.00,0.00,0.00,0,0,0,0,0.0000,0.0000,0.00,0.00,0.00,0.000,0.000,0.000,0.000,0.000,0.000,0.00,0.00,0.00,0.0,0.0,
685,1768207321600,139232,0.00,0.00,31.79,0.11,0.00,0.00,0.00,0.00,0,0,0,0,0.0000,0.0000,0.00,0.00,0.00,0.000,0.000,0.000,0.000,0.000,0.000,0.00,0.00,0.00,0.0,0.0,
686,1768207321800,139432,36.00,0.00,32.14,0.00,0.00,0.00,0.00,0.00,0,0,0,0,0.0000,0.0000,0.00,0.00,0.00,0.000,0.000,0.000,0.000,0.000,0.000,0.00,0.00,0.00,0.0,0.0,
687,1768207322000,139632,30.00,0.00,32.09,0.00,0.00,0.00,0.00,0.00,0,0,0,0,0.0000,0.0000,0.00,0.00,0.00,0.000,0.000,0.000,0.000,0.000,0.000,0.00,0.00,0.00,0.0,0.0,
688,1768207322200,139832,30.00,0.00,32.33,0.00,0.00,0.00,0.00,0.00,0,0,0,0,0.0000,0.0000,0.00,0.00,0.00,0.000,0.000,0.000,0.000,0.000,0.000,0.00,0.00,0.00,0.0,0.0,
689,1768207322400,140032,6.00,0.00,32.12,0.00,0.00,0.00,0.00,0.00,0,0,0,0,0.0000,0.0000,0.00,0.00,0.00,0.000,0.000,0.000,0.000,0.000,0.000,0.00,0.00,0.00,0.0,0.0,
690,1768207323600,140232,18.00,0.00,31.78,0.00,0.00,0.00,0.00,0.00,0,0,0,0,0.0000,0.0000,0.00,0.00,0.00,0.000,0.000,0.000,0.000,0.000,0.000,0.00,0.00,0.00,0.0,0.0,
691,1768207323800,140432,36.00,0.00,31.98,0.00,0.00,0.00,0.00,0.00,0,0,0,0,0.0000,0.0000,0.00,0.00,0.00,0.000,0.000,0.000,0.000,0.000,0.000,0.00,0.00,0.00,0.0,0.0,
692,1768207324000,140632,12.00,0.00,32.38,0.00,0.00,0.00,0.00,0.00,0,0,0,0,0.0000,0.0000,0.00,0.00,0.00,0.000,0.000,0.000,0.000,0.000,0.000,0.00,0.00,0.00,0.0,0.0,
693,1768207324200,140832,12.00,0.00,31.85,0.00,0.00,0.00,0.00,0.00,0,0,0,0,0.0000,0.0000,0.00,0.00,0.00,0.000,0.000,0.000,0.000,0.000,0.000,0.00,0.00,0.00,0.0,0.0,
694,1768207324400,141032,30.00,0.00,32.40,0.00,0.00,0.00,0.00,0.00,0,0,0,0,0.0000,0.0000,0.00,0.00,0.00,0.000,0.000,0.000,0.000,0.000,0.000,0.00,0.00,0.00,0.0,0.0,
695,1768207325600,141232,24.00,0.00,31.34,6.87,0.00,0.00,0.00,0.00,0,0,0,0,0.0000,0.0000,0.00,0.00,0.00,0.000,0.000,0.000,0.000,0.000,0.000,0.00,0.00,0.00,0.0,0.0,
696,1768207325800,141432,24.00,0.00,32.03,0.00,0.00,0.00,0.00,0.00,0,0,0,0,0.0000,0.0000,0.00,0.00,0.00,0.000,0.000,0.000,0.000,0.000,0.000,0.00,0.00,0.00,0.0,0.0,
697,1768207326000,141632,6.00,0.00,32.03,0.00,0.00,0.00,0.00,0.00,0,0,0,0,0.0000,0.0000,0.00,0.00,0.00,0.000,0.000,0.000,0.000,0.000,0.000,0.00,0.00,0.00,0.0,0.0,
698,1768207326200,141832,12.00,0.00,32.11,0.00,0.00,0.00,0.00,0.00,0,0,0,0,0.0000,0.0000,0.00,0.00,0.00,0.000,0.000,0.000,0.000,0.000,0.000,0.00,0.00,0.00,0.0,0.0,
699,1768207326400,142032,18.00,0.00,32.29,0.05,0.00,0.00,0.00,0.00,0,0,0,0,0.0000,0.0000,0.00,0.00,0.00,0.000,0.000,0.000,0.000,0.000,0.000,0.00,0.00,0.00,0.0,0.0,
700,1768207327600,142232,6.00,0.00,32.07,0.00,0.00,0.00,0.00,0.00,0,0,0,0,0.0000,0.0000,0.00,0.00,0.00,0.000,0.000,0.000,0.000,0.000,0.000,0.00,0.00,0.00,0.0,0.0,
701,1768207327800,142432,18.00,0.00,32.00,0.00,0.00,0.00,0.00,0.00,0,0,0,0,0.0000,0.0000,0.00,0.00,0.00,0.000,0.000,0.000,0.000,0.000,0.000,0.00,0.00,0.00,0.0,0.0,
702,1768207328000,142632,24.00,0.00,32.11,0.11,0.00,0.00,0.00,0.00,0,0,0,0,0.0000,0.0000,0.00,0.00,0.00,0.000,0.000,0.000,0.000,0.000,0.000,0.00,0.00,0.00,0.0,0.0,
703,1768207328200,142832,30.00,0.00,32.00,0.00,0.00,0.00,0.00,0.00,0,0,0,0,0.0000,0.0000,0.00,0.00,0.00,0.000,0.000,0.000,0.000,0.000,0.000,0.00,0.00,0.00,0.0,0.0,
704,1768207328400,143032,18.00,0.00,32.51,0.00,0.00,0.00,0.00,0.00,0,0,0,0,0.0000,0.0000,0.00,0.00,0.00,0.000,0.000,0.000,0.000,0.000,0.000,0.00,0.00,0.00,0.0,0.0,
705,1768207329600,143232,12.00,0.00,32.14,0.00,0.00,0.00,0.00,0.00,0,0,0,0,0.0000,0.0000,0.00,0.00,0.00,0.000,0.000,0.000,0.000,0.000,0.000,0.00,0.00,0.00,0.0,0.0,
706,1768207329800,143432,18.00,0.00,31.81,0.00,0.00,0.00,0.00,0.00,0,0,0,0,0.0000,0.0000,0.00,0.00,0.00,0.000,0.000,0.000,0.000,0.000,0.000,0.00,0.00,0.00,0.0,0.0,
707,1768207330000,143632,18.00,0.00,32.31,0.00,0.00,0.00,0.00,0.00,0,0,0,0,0.0000,0.0000,0.00,0.00,0.00,0.000,0.000,0.000,0.000,0.000,0.000,0.00,0.00,0.00,0.0,0.0,
708,1768207330200,143832,12.00,0.00,31.85,0.00,0.00,0.00,0.00,0.00,0,0,0,0,0.0000,0.0000,0.00,0.00,0.00,0.000,0.000,0.000,0.000,0.000,0.000,0.00,0.00,0.00,0.0,0.0,
709,1768207330400,144032,24.00,0.00,32.07,0.00,0.00,0.00,0.00,0.00,0,0,0,0,0.0000,0.0000,0.00,0.00,0.00,0.000,0.000,0.000,0.000,0.000,0.000,0.00,0.00,0.00,0.0,0.0,
710,1768207331600,144232,36.00,0.00,32.11,0.00,0.00,0.00,0.00,0.00,0,0,0,0,0.0000,0.0000,0.00,0.00,0.00,0.000,0.000,0.000,0.000,0.000,0.000,0.00,0.00,0.00,0.0,0.0,
711,1768207331800,144432,30.00,0.00,32.14,0.00,0.00,0.00,0.00,0.00,0,0,0,0,0.0000,0.0000,0.00,0.00,0.00,0.000,0.000,0.000,0.000,0.000,0.000,0.00,0.00,0.00,0.0,0.0,
712,1768207332000,144632,18.00,0.00,31.92,0.13,0.00,0.00,0.00,0.00,0,0,0,0,0.0000,0.0000,0.00,0.00,0.00,0.000,0.000,0.000,0.000,0.000,0.000,0.00,0.00,0.00,0.0,0.0,
713,1768207332200,144832,18.00,0.00,31.56,0.00,0.00,0.00,0.00,0.00,0,0,0,0,0.0000,0.0000,0.00,0.00,0.00,0.000,0.000,0.000,0.000,0.000,0.000,0.00,0.00,0.00,0.0,0.0,
714,1768207332400,145032,18.00,0.00,31.81,0.00,0.00,0.00,0.00,0.00,0,0,0,0,0.0000,0.0000,0.00,0.00,0.00,0.000,0.000,0.000,0.000,0.000,0.000,0.00,0.00,0.00,0.0,0.0,
715,1768207333600,145232,30.00,0.00,32.01,0.00,0.00,0.00,0.00,0.00,0,0,0,0,0.0000,0.0000,0.00,0.00,0.00,0.000,0.000,0.000,0.000,0.000,0.000,0.00,0.00,0.00,0.0,0.0,
716,1768207333800,145432,18.00,0.00,31.96,0.00,0.00,0.00,0.00,0.00,0,0,0,0,0.0000,0.0000,0.00,0.00,0.00,0.000,0.000,0.000,0.000,0.000,0.000,0.00,0.00,0.00,0.0,0.0,
717,1768207334000,145632,24.00,0.00,31.92,0.00,0.00,0.00,0.00,0.00,0,0,0,0,0.0000,0.0000,0.00,0.00,0.00,0.000,0.000,0.000,0.000,0.000,0.000,0.00,0.00,0.00,0.0,0.0,
718,1768207334200,145832,12.00,0.00,32.22,0.00,0.00,0.00,0.00,0.00,0,0,0,0,0.0000,0.0000,0.00,0.00,0.00,0.000,0.000,0.000,0.000,0.000,0.000,0.00,0.00,0.00,0.0,0.0,
719,1768207334400,146032,6.00,0.00,31.92,0.00,0.00,0.00,0.00,0.00,0,0,0,0,0.0000,0.0000,0.00,0.00,0.00,0.000,0.000,0.000,0.000,0.000,0.000,0.00,0.00,0.00,0.0,0.0,
720,1768207335600,146232,12.00,0.00,32.40,0.00,0.00,0.00,0.00,0.00,0,0,0,0,0.0000,0.0000,0.00,0.00,0.00,0.000,0.000,0.000,0.000,0.000,0.000,0.00,0.00,0.00,0.0,0.0,
721,1768207335800,146432,24.00,0.00,31.89,0.00,0.00,0.00,0.00,0.00,0,0,0,0,0.0000,0.0000,0.00,0.00,0.00,0.000,0.000,0.000,0.000,0.000,0.000,0.00,0.00,0.00,0.0,0.0,
722,1768207336000,146632,18.00,0.00,32.20,0.00,0.00,0.00,0.00,0.00,0,0,0,0,0.0000,0.0000,0.00,0.00,0.00,0.000,0.000,0.000,0.000,0.000,0.000,0.00,0.00,0.00,0.0,0.0,
723,1768207336200,146832,24.00,0.00,31.96,0.00,0.00,0.00,0.00,0.00,0,0,0,0,0.0000,0.0000,0.00,0.00,0.00,0.000,0.000,0.000,0.000,0.000,0.000,0.00,0.00,0.00,0.0,0.0,
724,1768207336400,147032,36.00,0.00,32.00,0.04,0.00,0.00,0.00,0.00,0,0,0,0,0.0000,0.0000,0.00,0.00,0.00,0.000,0.000,0.000,0.000,0.000,0.000,0.00,0.00,0.00,0.0,0.0,
725,1768207337600,147232,24.00,0.00,32.16,0.00,0.00,0.00,0.00,0.00,0,0,0,0,0.0000,0.0000,0.00,0.00,0.00,0.000,0.000,0.000,0.000,0.000,0.000,0.00,0.00,0.00,0.0,0.0,
726,1768207337800,147432,48.00,0.00,32.16,0.00,0.00,0.00,0.00,0.00,0,0,0,0,0.0000,0.0000,0.00,0.00,0.00,0.000,0.000,0.000,0.000,0.000,0.000,0.00,0.00,0.00,0.0,0.0,
727,1768207338000,147632,18.00,0.00,31.98,0.00,0.00,0.00,0.00,0.00,0,0,0,0,0.0000,0.0000,0.00,0.00,0.00,0.000,0.000,0.000,0.000,0.000,0.000,0.00,0.00,0.00,0.0,0.0,
728,1768207338200,147832,18.00,0.00,32.29,0.00,0.00,0.00,0.00,0.00,0,0,0,0,0.0000,0.0000,0.00,0.00,0.00,0.000,0.000,0.000,0.000,0.000,0.000,0.00,0.00,0.00,0.0,0.0,
729,1768207338400,148032,24.00,0.00,31.61,0.00,0.00,0.00,0.00,0.00,0,0,0,0,0.0000,0.0000,0.00,0.00,0.00,0.000,0.000,0.000,0.000,0.000,0.000,0.00,0.00,0.00,0.0,0.0,
730,1768207339600,148232,36.00,0.00,31.59,0.31,0.00,0.00,0.00,0.00,0,0,0,0,0.0000,0.0000,0.00,0.00,0.00,0.000,0.000,0.000,0.000,0.000,0.000,0.00,0.00,0.00,0.0,0.0,
