DataPoint,UnixTime,SessionTime,Wheel_RPM_Left,Wheel_RPM_Right,Stroke1_mm,Stroke2_mm,I_SENSE(A),TMP(C),APPS(%),BPPS(%),AMS_OK,IMD_OK,HV_ON,BSPD_OK,GPS_Lat,GPS_Lng,GPS_Age,GPS_Course,GPS_Speed,IMU_AccelX,IMU_AccelY,IMU_AccelZ,IMU_GyroX,IMU_GyroY,IMU_GyroZ,BAMOVolt(V),BAMOAmp(A),BAMOPower(W),MotorTemp(C),BAMOTemp(C)
2,1000000000001,2149,10614.00,0.00,30.82,0.51,0.00,0.00,0.00,0.00,0,0,0,0,0.0000,0.0000,0.00,0.00,0.00,0.000,0.000,0.000,0.000,0.000,0.000,0.00,0.00,0.00,0.0,0.0,
3,1000000000201,2349,12.00,0.00,30.93,0.00,0.00,0.00,0.00,0.00,0,0,0,0,0.0000,0.0000,0.00,0.00,0.00,0.000,0.000,0.000,0.000,0.000,0.000,0.00,0.00,0.00,0.0,0.0,
4,1000000000401,2549,0.00,0.00,31.23,0.02,0.00,0.00,0.00,0.00,0,0,0,0,0.0000,0.0000,0.00,0.00,0.00,0.000,0.000,0.000,0.000,0.000,0.000,0.00,0.00,0.00,0.0,0.0,
5,1000000000601,2749,0.00,0.00,30.97,0.00,0.00,0.00,0.00,0.00,0,0,0,0,0.0000,0.0000,0.00,0.00,0.00,0.000,0.000,0.000,0.000,0.000,0.000,0.00,0.00,0.00,0.0,0.0,
6,1000000000801,2949,0.00,0.00,30.90,0.00,0.00,0.00,0.00,0.00,0,0,0,0,0.0000,0.0000,0.00,0.00,0.00,0.000,0.000,0.000,0.000,0.000,0.000,0.00,0.00,0.00,0.0,0.0,
7,1000000002001,3149,0.00,0.00,30.66,0.00,0.00,0.00,0.00,0.00,0,0,0,0,0.0000,0.0000,0.00,0.00,0.00,0.000,0.000,0.000,0.000,0.000,0.000,0.00,0.00,0.00,0.0,0.0,
8,1000000002201,3349,0.00,0.00,30.60,0.00,0.00,0.00,0.00,0.00,0,0,0,0,0.0000,0.0000,0.00,0.00,0.00,0.000,0.000,0.000,0.000,0.000,0.000,0.00,0.00,0.00,0.0,0.0,
9,1000000002401,3549,0.00,0.00,30.90,0.00,0.00,0.00,0.00,0.00,0,0,0,0,0.0000,0.0000,0.00,0.00,0.00,0.000,0.000,0.000,0.000,0.000,0.000,0.00,0.00,0.00,0.0,0.0,
10,1000000002601,3749,0.00,0.00,31.21,0.00,0.00,0.00,0.00,0.00,0,0,0,0,0.0000,0.0000,0.00,0.00,0.00,0.000,0.000,0.000,0.000,0.000,0.000,0.00,0.00,0.00,0.0,0.0,
11,1000000002801,3949,0.00,0.00,30.82,0.00,0.00,0.00,0.00,0.00,0,0,0,0,0.0000,0.0000,0.00,0.00,0.00,0.000,0.000,0.000,0.000,0.000,0.000,0.00,0.00,0.00,0.0,0.0,
12,1000000004001,4149,12.00,0.00,31.12,0.00,0.00,0.00,0.00,0.00,0,0,0,0,0.0000,0.0000,0.00,0.00,0.00,0.000,0.000,0.000,0.000,0.000,0.000,0.00,0.00,0.00,0.0,0.0,
13,1000000004201,4349,0.00,0.00,31.26,0.00,0.00,0.00,0.00,0.00,0,0,0,0,0.0000,0.0000,0.00,0.00,0.00,0.000,0.000,0.000,0.000,0.000,0.000,0.00,0.00,0.00,0.0,0.0,
14,1000000004401,4549,0.00,0.00,31.45,0.00,0.00,0.00,0.00,0.00,0,0,0,0,0.0000,0.0000,0.00,0.00,0.00,0.000,0.000,0.000,0.000,0.000,0.000,0.00,0.00,0.00,0.0,0.0,
15,1000000004602,4750,12.00,0.00,30.75,0.18,0.00,0.00,0.00,0.00,0,0,0,0,0.0000,0.0000,0.00,0.00,0.00,0.000,0.000,0.000,0.000,0.000,0.000,0.00,0.00,0.00,0.0,0.0,
16,1000000004802,4950,0.00,0.00,30.60,0.00,0.00,0.00,0.00,0.00,0,0,0,0,0.0000,0.0000,0.00,0.00,0.00,0.000,0.000,0.000,0.000,0.000,0.000,0.00,0.00,0.00,0.0,0.0,
17,1000000006002,5150,0.00,0.00,30.90,0.00,0.00,0.00,0.00,0.00,0,0,0,0,0.0000,0.0000,0.00,0.00,0.00,0.000,0.000,0.000,0.000,0.000,0.000,0.00,0.00,0.00,0.0,0.0,
18,1000000006202,5350,0.00,0.00,30.95,0.00,0.00,0.00,0.00,0.00,0,0,0,0,0.0000,0.0000,0.00,0.00,0.00,0.000,0.000,0.000,0.000,0.000,0.000,0.00,0.00,0.00,0.0,0.0,
19,1000000006402,5550,0.00,0.00,30.75,0.00,0.00,0.00,0.00,0.00,0,0,0,0,0.0000,0.0000,0.00,0.00,0.00,0.000,0.000,0.000,0.000,0.000,0.000,0.00,0.00,0.00,0.0,0.0,
20,1000000006602,5750,60.00,0.00,29.84,0.57,0.00,0.00,0.00,0.00,0,0,0,0,0.0000,0.0000,0.00,0.00,0.00,0.000,0.000,0.000,0.000,0.000,0.000,0.00,0.00,0.00,0.0,0.0,
21,1000000006802,5950,1518.00,0.00,30.97,0.00,0.00,0.00,0.00,0.00,0,0,0,0,0.0000,0.0000,0.00,0.00,0.00,0.000,0.000,0.000,0.000,0.000,0.000,0.00,0.00,0.00,0.0,0.0,
22,1768209424002,6150,1614.00,0.00,30.71,0.00,0.00,0.00,0.00,0.00,0,0,0,0,0.0000,0.0000,0.00,0.00,0.00,0.000,0.000,0.000,0.000,0.000,0.000,0.00,0.00,0.00,0.0,0.0,
23,1768209425202,6350,1260.00,0.00,31.26,0.00,0.00,0.00,0.00,0.00,0,0,0,0,0.0000,0.0000,0.00,0.00,0.00,0.000,0.000,0.000,0.000,0.000,0.000,0.00,0.00,0.00,0.0,0.0,
24,1768209425402,6550,1212.00,0.00,31.59,0.00,0.00,0.00,0.00,0.00,0,0,0,0,0.0000,0.0000,0.00,0.00,0.00,0.000,0.000,0.000,0.000,0.000,0.000,0.00,0.00,0.00,0.0,0.0,
25,1768209425602,6750,1236.00,0.00,30.73,0.00,0.00,0.00,0.00,0.00,0,0,0,0,0.0000,0.0000,0.00,0.00,0.00,0.000,0.000,0.000,0.000,0.000,0.000,0.00,0.00,0.00,0.0,0.0,
26,1768209425802,6950,1422.00,0.00,31.15,0.00,0.00,0.00,0.00,0.00,0,0,0,0,0.0000,0.0000,0.00,0.00,0.00,0.000,0.000,0.000,0.000,0.000,0.000,0.00,0.00,0.00,0.0,0.0,
27,1768209426002,7150,1440.00,0.00,31.30,0.00,0.00,0.00,0.00,0.00,0,0,0,0,0.0000,0.0000,0.00,0.00,0.00,0.000,0.000,0.000,0.000,0.000,0.000,0.00,0.00,0.00,0.0,0.0,
28,1768209427202,7350,372.00,0.00,31.15,0.00,0.00,0.00,0.00,0.00,0,0,0,0,0.0000,0.0000,0.00,0.00,0.00,0.000,0.000,0.000,0.000,0.000,0.000,0.00,0.00,0.00,0.0,0.0,
29,1768209427402,7550,768.00,0.00,31.52,0.00,0.00,0.00,0.00,0.00,0,0,0,0,0.0000,0.0000,0.00,0.00,0.00,0.000,0.000,0.000,0.000,0.000,0.000,0.00,0.00,0.00,0.0,0.0,
30,1768209427602,7750,840.00,0.00,31.48,0.00,0.00,0.00,0.00,0.00,0,0,0,0,0.0000,0.0000,0.00,0.00,0.00,0.000,0.000,0.000,0.000,0.000,0.000,0.00,0.00,0.00,0.0,0.0,
31,1768209427802,7950,708.00,0.00,31.03,0.00,0.00,0.00,0.00,0.00,0,0,0,0,0.0000,0.0000,0.00,0.00,0.00,0.000,0.000,0.000,0.000,0.000,0.000,0.00,0.00,0.00,0.0,0.0,
32,1768209428002,8150,996.00,0.00,31.04,0.00,0.00,0.00,0.00,0.00,0,0,0,0,0.0000,0.0000,0.00,0.00,0.00,0.000,0.000,0.000,0.000,0.000,0.000,0.00,0.00,0.00,0.0,0.0,
33,1768209429202,8350,900.00,0.00,31.34,0.00,0.00,0.00,0.00,0.00,0,0,0,0,0.0000,0.0000,0.00,0.00,0.00,0.000,0.000,0.000,0.000,0.000,0.000,0.00,0.00,0.00,0.0,0.0,
34,1768209429402,8550,732.00,0.00,31.34,0.00,0.00,0.00,0.00,0.00,0,0,0,0,0.0000,0.0000,0.00,0.00,0.00,0.000,0.000,0.000,0.000,0.000,0.000,0.00,0.00,0.00,0.0,0.0,
35,1768209429602,8750,768.00,0.00,31.01,0.05,0.00,0.00,0.00,0.00,0,0,0,0,0.0000,0.0000,0.00,0.00,0.00,0.000,0.000,0.000,0.000,0.000,0.000,0.00,0.00,0.00,0.0,0.0,
36,1768209429802,8950,756.00,0.00,31.17,0.00,0.00,0.00,0.00,0.00,0,0,0,0,0.0000,0.0000,0.00,0.00,0.00,0.000,0.000,0.000,0.000,0.000,0.000,0.00,0.00,0.00,0.0,0.0,
37,1768209430002,9150,864.00,0.00,31.15,0.11,0.00,0.00,0.00,0.00,0,0,0,0,0.0000,0.0000,0.00,0.00,0.00,0.000,0.000,0.000,0.000,0.000,0.000,0.00,0.00,0.00,0.0,0.0,
38,1768209431202,9350,972.00,0.00,31.26,0.00,0.00,0.00,0.00,0.00,0,0,0,0,0.0000,0.0000,0.00,0.00,0.00,0.000,0.000,0.000,0.000,0.000,0.000,0.00,0.00,0.00,0.0,0.0,
39,1768209431402,9550,1020.00,0.00,31.01,0.00,0.00,0.00,0.00,0.00,0,0,0,0,0.0000,0.0000,0.00,0.00,0.00,0.000,0.000,0.000,0.000,0.000,0.000,0.00,0.00,0.00,0.0,0.0,
40,1768209431602,9750,996.00,0.00,31.23,0.00,0.00,0.00,0.00,0.00,0,0,0,0,0.0000,0.0000,0.00,0.00,0.00,0.000,0.000,0.000,0.000,0.000,0.000,0.00,0.00,0.00,0.0,0.0,
41,1768209431802,9950,852.00,0.00,31.56,0.00,0.00,0.00,0.00,0.00,0,0,0,0,0.0000,0.0000,0.00,0.00,0.00,0.000,0.000,0.000,0.000,0.000,0.000,0.00,0.00,0.00,0.0,0.0,
42,1768209432002,10150,978.00,0.00,30.90,0.00,0.00,0.00,0.00,0.00,0,0,0,0,0.0000,0.0000,0.00,0.00,0.00,0.000,0.000,0.000,0.000,0.000,0.000,0.00,0.00,0.00,0.0,0.0,
43,1768209433202,10350,792.00,0.00,31.26,0.00,0.00,0.00,0.00,0.00,0,0,0,0,0.0000,0.0000,0.00,0.00,0.00,0.000,0.000,0.000,0.000,0.000,0.000,0.00,0.00,0.00,0.0,0.0,
44,1768209433402,10550,852.00,0.00,31.26,0.00,0.00,0.00,0.00,0.00,0,0,0,0,0.0000,0.0000,0.00,0.00,0.00,0.000,0.000,0.000,0.000,0.000,0.000,0.00,0.00,0.00,0.0,0.0,
45,1768209433602,10750,990.00,0.00,31.04,0.00,0.00,0.00,0.00,0.00,0,0,0,0,0.0000,0.0000,0.00,0.00,0.00,0.000,0.000,0.000,0.000,0.000,0.000,0.00,0.00,0.00,0.0,0.0,
46,1768209433802,10950,378.00,0.00,31.15,0.00,0.00,0.00,0.00,0.00,0,0,0,0,0.0000,0.0000,0.00,0.00,0.00,0.000,0.000,0.000,0.000,0.000,0.000,0.00,0.00,0.00,0.0,0.0,
47,1768209434002,11150,0.00,0.00,31.30,0.00,0.00,0.00,0.00,0.00,0,0,0,0,0.0000,0.0000,0.00,0.00,0.00,0.000,0.000,0.000,0.000,0.000,0.000,0.00,0.00,0.00,0.0,0.0,
48,1768209435202,11350,0.00,0.00,31.52,0.00,0.00,0.00,0.00,0.00,0,0,0,0,0.0000,0.0000,0.00,0.00,0.00,0.000,0.000,0.000,0.000,0.000,0.000,0.00,0.00,0.00,0.0,0.0,
49,1768209435402,11550,0.00,0.00,31.17,0.00,0.00,0.00,0.00,0.00,0,0,0,0,0.0000,0.0000,0.00,0.00,0.00,0.000,0.000,0.000,0.000,0.000,0.000,0.00,0.00,0.00,0.0,0.0,
50,1768209435602,11750,0.00,0.00,30.99,0.00,0.00,0.00,0.00,0.00,0,0,0,0,0.0000,0.0000,0.00,0.00,0.00,0.000,0.000,0.000,0.000,0.000,0.000,0.00,0.00,0.00,0.0,0.0,
51,1768209435802,11950,0.00,0.00,31.04,0.00,0.00,0.00,0.00,0.00,0,0,0,0,0.0000,0.0000,0.00,0.00,0.00,0.000,0.000,0.000,0.000,0.000,0.000,0.00,0.00,0.00,0.0,0.0,
52,1768209436002,12150,0.00,0.00,30.82,0.00,0.00,0.00,0.00,0.00,0,0,0,0,0.0000,0.0000,0.00,0.00,0.00,0.000,0.000,0.000,0.000,0.000,0.000,0.00,0.00,0.00,0.0,0.0,
53,1768209437202,12350,0.00,0.00,31.63,0.00,0.00,0.00,0.00,0.00,0,0,0,0,0.0000,0.0000,0.00,0.00,0.00,0.000,0.000,0.000,0.000,0.000,0.000,0.00,0.00,0.00,0.0,0.0,
54,1768209437402,12550,0.00,0.00,31.12,0.00,0.00,0.00,0.00,0.00,0,0,0,0,0.0000,0.0000,0.00,0.00,0.00,0.000,0.000,0.000,0.000,0.000,0.000,0.00,0.00,0.00,0.0,0.0,
55,1768209437602,12750,0.00,0.00,31.15,0.00,0.00,0.00,0.00,0.00,0,0,0,0,0.0000,0.0000,0.00,0.00,0.00,0.000,0.000,0.000,0.000,0.000,0.000,0.00,0.00,0.00,0.0,0.0,
56,1768209437802,12950,0.00,0.00,31.56,0.00,0.00,0.00,0.00,0.00,0,0,0,0,0.0000,0.0000,0.00,0.00,0.00,0.000,0.000,0.000,0.000,0.000,0.000,0.00,0.00,0.00,0.0,0.0,
57,1768209438002,13150,0.00,0.00,31.28,0.02,0.00,0.00,0.00,0.00,0,0,0,0,0.0000,0.0000,0.00,0.00,0.00,0.000,0.000,0.000,0.000,0.000,0.000,0.00,0.00,0.00,0.0,0.0,
58,1768209439202,13350,0.00,0.00,30.82,0.16,0.00,0.00,0.00,0.00,0,0,0,0,0.0000,0.0000,0.00,0.00,0.00,0.000,0.000,0.000,0.000,0.000,0.000,0.00,0.00,0.00,0.0,0.0,
59,1768209439402,13550,0.00,0.00,30.46,0.70,0.00,0.00,0.00,0.00,0,0,0,0,0.0000,0.0000,0.00,0.00,0.00,0.000,0.000,0.000,0.000,0.000,0.000,0.00,0.00,0.00,0.0,0.0,
60,1768209439602,13750,0.00,0.00,30.97,0.00,0.00,0.00,0.00,0.00,0,0,0,0,0.0000,0.0000,0.00,0.00,0.00,0.000,0.000,0.000,0.000,0.000,0.000,0.00,0.00,0.00,0.0,0.0,
61,1768209439802,13950,0.00,0.00,31.19,0.00,0.00,0.00,0.00,0.00,0,0,0,0,0.0000,0.0000,0.00,0.00,0.00,0.000,0.000,0.000,0.000,0.000,0.000,0.00,0.00,0.00,0.0,0.0,
62,1768209440002,14150,0.00,0.00,31.14,0.00,0.00,0.00,0.00,0.00,0,0,0,0,0.0000,0.0000,0.00,0.00,0.00,0.000,0.000,0.000,0.000,0.000,0.000,0.00,0.00,0.00,0.0,0.0,
63,1768209441202,14350,0.00,0.00,31.19,0.00,0.00,0.00,0.00,0.00,0,0,0,0,0.0000,0.0000,0.00,0.00,0.00,0.000,0.000,0.000,0.000,0.000,0.000,0.00,0.00,0.00,0.0,0.0,
64,1768209441402,14550,0.00,0.00,31.41,0.00,0.00,0.00,0.00,0.00,0,0,0,0,0.0000,0.0000,0.00,0.00,0.00,0.000,0.000,0.000,0.000,0.000,0.000,0.00,0.00,0.00,0.0,0.0,
65,1768209441602,14750,0.00,0.00,30.97,0.16,0.00,0.00,0.00,0.00,0,0,0,0,0.0000,0.0000,0.00,0.00,0.00,0.000,0.000,0.000,0.000,0.000,0.000,0.00,0.00,0.00,0.0,0.0,
66,1768209441802,14950,0.00,0.00,30.93,0.00,0.00,0.00,0.00,0.00,0,0,0,0,0.0000,0.0000,0.00,0.00,0.00,0.000,0.000,0.000,0.000,0.000,0.000,0.00,0.00,0.00,0.0,0.0,
67,1768209442002,15150,0.00,0.00,31.12,0.00,0.00,0.00,0.00,0.00,0,0,0,0,0.0000,0.0000,0.00,0.00,0.00,0.000,0.000,0.000,0.000,0.000,0.000,0.00,0.00,0.00,0.0,0.0,
68,1768209443202,15350,0.00,0.00,30.99,0.05,0.00,0.00,0.00,0.00,0,0,0,0,0.0000,0.0000,0.00,0.00,0.00,0.000,0.000,0.000,0.000,0.000,0.000,0.00,0.00,0.00,0.0,0.0,
69,1768209443402,15550,12.00,0.00,30.93,0.13,0.00,0.00,0.00,0.00,0,0,0,0,0.0000,0.0000,0.00,0.00,0.00,0.000,0.000,0.000,0.000,0.000,0.000,0.00,0.00,0.00,0.0,0.0,
70,1768209443602,15750,0.00,0.00,31.19,0.00,0.00,0.00,0.00,0.00,0,0,0,0,0.0000,0.0000,0.00,0.00,0.00,0.000,0.000,0.000,0.000,0.000,0.000,0.00,0.00,0.00,0.0,0.0,
71,1768209443802,15950,0.00,0.00,31.14,0.00,0.00,0.00,0.00,0.00,0,0,0,0,0.0000,0.0000,0.00,0.00,0.00,0.000,0.000,0.000,0.000,0.000,0.000,0.00,0.00,0.00,0.0,0.0,
72,1768209444002,16150,0.00,0.00,30.93,0.00,0.00,0.00,0.00,0.00,0,0,0,0,0.0000,0.0000,0.00,0.00,0.00,0.000,0.000,0.000,0.000,0.000,0.000,0.00,0.00,0.00,0.0,0.0,
73,1768209445202,16350,0.00,0.00,30.90,0.00,0.00,0.00,0.00,0.00,0,0,0,0,0.0000,0.0000,0.00,0.00,0.00,0.000,0.000,0.000,0.000,0.000,0.000,0.00,0.00,0.00,0.0,0.0,
74,1768209445402,16550,0.00,0.00,31.41,0.00,0.00,0.00,0.00,0.00,0,0,0,0,0.0000,0.0000,0.00,0.00,0.00,0.000,0.000,0.000,0.000,0.000,0.000,0.00,0.00,0.00,0.0,0.0,
75,1768209445602,16750,0.00,0.00,31.23,0.04,0.00,0.00,0.00,0.00,0,0,0,0,0.0000,0.0000,0.00,0.00,0.00,0.000,0.000,0.000,0.000,0.000,0.000,0.00,0.00,0.00,0.0,0.0,
76,1768209445802,16950,0.00,0.00,31.04,0.00,0.00,0.00,0.00,0.00,0,0,0,0,0.0000,0.0000,0.00,0.00,0.00,0.000,0.000,0.000,0.000,0.000,0.000,0.00,0.00,0.00,0.0,0.0,
77,1768209446002,17150,0.00,0.00,31.15,0.07,0.00,0.00,0.00,0.00,0,0,0,0,0.0000,0.0000,0.00,0.00,0.00,0.000,0.000,0.000,0.000,0.000,0.000,0.00,0.00,0.00,0.0,0.0,
78,1768209447202,17350,0.00,0.00,31.04,0.00,0.00,0.00,0.00,0.00,0,0,0,0,0.0000,0.0000,0.00,0.00,0.00,0.000,0.000,0.000,0.000,0.000,0.000,0.00,0.00,0.00,0.0,0.0,
79,1768209447402,17550,0.00,0.00,31.47,0.07,0.00,0.00,0.00,0.00,0,0,0,0,0.0000,0.0000,0.00,0.00,0.00,0.000,0.000,0.000,0.000,0.000,0.000,0.00,0.00,0.00,0.0,0.0,
80,1768209447602,17750,0.00,0.00,31.36,0.00,0.00,0.00,0.00,0.00,0,0,0,0,0.0000,0.0000,0.00,0.00,0.00,0.000,0.000,0.000,0.000,0.000,0.000,0.00,0.00,0.00,0.0,0.0,
81,1768209447802,17950,36.00,0.00,31.52,0.00,0.00,0.00,0.00,0.00,0,0,0,0,0.0000,0.0000,0.00,0.00,0.00,0.000,0.000,0.000,0.000,0.000,0.000,0.00,0.00,0.00,0.0,0.0,
82,1768209448002,18150,0.00,0.00,30.99,0.00,0.00,0.00,0.00,0.00,0,0,0,0,0.0000,0.0000,0.00,0.00,0.00,0.000,0.000,0.000,0.000,0.000,0.000,0.00,0.00,0.00,0.0,0.0,
83,1768209449202,18350,0.00,0.00,31.25,0.07,0.00,0.00,0.00,0.00,0,0,0,0,0.0000,0.0000,0.00,0.00,0.00,0.000,0.000,0.000,0.000,0.000,0.000,0.00,0.00,0.00,0.0,0.0,
84,1768209449402,18550,0.00,0.00,31.34,0.00,0.00,0.00,0.00,0.00,0,0,0,0,0.0000,0.0000,0.00,0.00,0.00,0.000,0.000,0.000,0.000,0.000,0.000,0.00,0.00,0.00,0.0,0.0,
85,1768209449602,18750,0.00,0.00,31.43,0.00,0.00,0.00,0.00,0.00,0,0,0,0,0.0000,0.0000,0.00,0.00,0.00,0.000,0.000,0.000,0.000,0.000,0.000,0.00,0.00,0.00,0.0,0.0,
86,1768209449802,18950,0.00,0.00,31.25,0.13,0.00,0.00,0.00,0.00,0,0,0,0,0.0000,0.0000,0.00,0.00,0.00,0.000,0.000,0.000,0.000,0.000,0.000,0.00,0.00,0.00,0.0,0.0,
87,1768209450002,19150,0.00,0.00,31.52,0.00,0.00,0.00,0.00,0.00,0,0,0,0,0.0000,0.0000,0.00,0.00,0.00,0.000,0.000,0.000,0.000,0.000,0.000,0.00,0.00,0.00,0.0,0.0,
88,1768209451202,19350,0.00,0.00,31.04,0.00,0.00,0.00,0.00,0.00,0,0,0,0,0.0000,0.0000,0.00,0.00,0.00,0.000,0.000,0.000,0.000,0.000,0.000,0.00,0.00,0.00,0.0,0.0,
89,1768209451402,19550,0.00,0.00,31.48,0.00,0.00,0.00,0.00,0.00,0,0,0,0,0.0000,0.0000,0.00,0.00,0.00,0.000,0.000,0.000,0.000,0.000,0.000,0.00,0.00,0.00,0.0,0.0,
90,1768209451602,19750,0.00,0.00,30.92,0.05,0.00,0.00,0.00,0.00,0,0,0,0,0.0000,0.0000,0.00,0.00,0.00,0.000,0.000,0.000,0.000,0.000,0.000,0.00,0.00,0.00,0.0,0.0,
91,1768209451802,19950,0.00,0.00,31.04,0.00,0.00,0.00,0.00,0.00,0,0,0,0,0.0000,0.0000,0.00,0.00,0.00,0.000,0.000,0.000,0.000,0.000,0.000,0.00,0.00,0.00,0.0,0.0,
92,1768209452002,20150,0.00,0.00,31.21,0.00,0.00,0.00,0.00,0.00,0,0,0,0,0.0000,0.0000,0.00,0.00,0.00,0.000,0.000,0.000,0.000,0.000,0.000,0.00,0.00,0.00,0.0,0.0,
93,1768209453202,20350,0.00,0.00,31.41,0.00,0.00,0.00,0.00,0.00,0,0,0,0,0.0000,0.0000,0.00,0.00,0.00,0.000,0.000,0.000,0.000,0.000,0.000,0.00,0.00,0.00,0.0,0.0,
94,1768209453402,20550,0.00,0.00,31.26,0.09,0.00,0.00,0.00,0.00,0,0,0,0,0.0000,0.0000,0.00,0.00,0.00,0.000,0.000,0.000,0.000,0.000,0.000,0.00,0.00,0.00,0.0,0.0,
95,1768209453602,20750,0.00,0.00,30.82,0.00,0.00,0.00,0.00,0.00,0,0,0,0,0.0000,0.0000,0.00,0.00,0.00,0.000,0.000,0.000,0.000,0.000,0.000,0.00,0.00,0.00,0.0,0.0,
96,1768209453802,20950,0.00,0.00,31.41,0.00,0.00,0.00,0.00,0.00,0,0,0,0,0.0000,0.0000,0.00,0.00,0.00,0.000,0.000,0.000,0.000,0.000,0.000,0.00,0.00,0.00,0.0,0.0,
97,1768209454002,21150,0.00,0.00,31.19,0.02,0.00,0.00,0.00,0.00,0,0,0,0,0.0000,0.0000,0.00,0.00,0.00,0.000,0.000,0.000,0.000,0.000,0.000,0.00,0.00,0.00,0.0,0.0,
98,1768209455202,21350,0.00,0.00,31.26,0.00,0.00,0.00,0.00,0.00,0,0,0,0,0.0000,0.0000,0.00,0.00,0.00,0.000,0.000,0.000,0.000,0.000,0.000,0.00,0.00,0.00,0.0,0.0,
99,1768209455402,21550,0.00,0.00,31.30,0.00,0.00,0.00,0.00,0.00,0,0,0,0,0.0000,0.0000,0.00,0.00,0.00,0.000,0.000,0.000,0.000,0.000,0.000,0.00,0.00,0.00,0.0,0.0,
100,1768209455602,21750,0.00,0.00,30.97,0.00,0.00,0.00,0.00,0.00,0,0,0,0,0.0000,0.0000,0.00,0.00,0.00,0.000,0.000,0.000,0.000,0.000,0.000,0.00,0.00,0.00,0.0,0.0,
101,1768209455802,21950,0.00,0.00,30.82,0.11,0.00,0.00,0.00,0.00,0,0,0,0,0.0000,0.0000,0.00,0.00,0.00,0.000,0.000,0.000,0.000,0.000,0.000,0.00,0.00,0.00,0.0,0.0,
102,1768209456002,22150,0.00,0.00,31.15,0.00,0.00,0.00,0.00,0.00,0,0,0,0,0.0000,0.0000,0.00,0.00,0.00,0.000,0.000,0.000,0.000,0.000,0.000,0.00,0.00,0.00,0.0,0.0,
103,1768209457202,22350,0.00,0.00,31.14,0.09,0.00,0.00,0.00,0.00,0,0,0,0,0.0000,0.0000,0.00,0.00,0.00,0.000,0.000,0.000,0.000,0.000,0.000,0.00,0.00,0.00,0.0,0.0,
104,1768209457402,22550,0.00,0.00,31.15,0.00,0.00,0.00,0.00,0.00,0,0,0,0,0.0000,0.0000,0.00,0.00,0.00,0.000,0.000,0.000,0.000,0.000,0.000,0.00,0.00,0.00,0.0,0.0,
105,1768209457602,22750,0.00,0.00,31.19,0.00,0.00,0.00,0.00,0.00,0,0,0,0,0.0000,0.0000,0.00,0.00,0.00,0.000,0.000,0.000,0.000,0.000,0.000,0.00,0.00,0.00,0.0,0.0,
106,1768209457802,22950,0.00,0.00,31.23,0.13,0.00,0.00,0.00,0.00,0,0,0,0,0.0000,0.0000,0.00,0.00,0.00,0.000,0.000,0.000,0.000,0.000,0.000,0.00,0.00,0.00,0.0,0.0,
107,1768209458002,23150,0.00,0.00,30.92,0.00,0.00,0.00,0.00,0.00,0,0,0,0,0.0000,0.0000,0.00,0.00,0.00,0.000,0.000,0.000,0.000,0.000,0.000,0.00,0.00,0.00,0.0,0.0,
108,1768209459202,23350,0.00,0.00,31.01,0.16,0.00,0.00,0.00,0.00,0,0,0,0,0.0000,0.0000,0.00,0.00,0.00,0.000,0.000,0.000,0.000,0.000,0.000,0.00,0.00,0.00,0.0,0.0,
109,1768209459402,23550,0.00,0.00,31.58,0.00,0.00,0.00,0.00,0.00,0,0,0,0,0.0000,0.0000,0.00,0.00,0.00,0.000,0.000,0.000,0.000,0.000,0.000,0.00,0.00,0.00,0.0,0.0,
110,1768209459602,23750,0.00,0.00,31.32,0.00,0.00,0.00,0.00,0.00,0,0,0,0,0.0000,0.0000,0.00,0.00,0.00,0.000,0.000,0.000,0.000,0.000,0.000,0.00,0.00,0.00,0.0,0.0,
111,1768209459802,23950,0.00,0.00,31.43,0.00,0.00,0.00,0.00,0.00,0,0,0,0,0.0000,0.0000,0.00,0.00,0.00,0.000,0.000,0.000,0.000,0.000,0.000,0.00,0.00,0.00,0.0,0.0,
112,1768209460002,24150,12.00,0.00,31.26,0.02,0.00,0.00,0.00,0.00,0,0,0,0,0.0000,0.0000,0.00,0.00,0.00,0.000,0.000,0.000,0.000,0.000,0.000,0.00,0.00,0.00,0.0,0.0,
113,1768209461202,24350,0.00,0.00,30.93,0.00,0.00,0.00,0.00,0.00,0,0,0,0,0.0000,0.0000,0.00,0.00,0.00,0.000,0.000,0.000,0.000,0.000,0.000,0.00,0.00,0.00,0.0,0.0,
114,1768209461402,24550,0.00,0.00,31.41,0.00,0.00,0.00,0.00,0.00,0,0,0,0,0.0000,0.0000,0.00,0.00,0.00,0.000,0.000,0.000,0.000,0.000,0.000,0.00,0.00,0.00,0.0,0.0,
115,1768209461602,24750,0.00,0.00,31.17,0.00,0.00,0.00,0.00,0.00,0,0,0,0,0.0000,0.0000,0.00,0.00,0.00,0.000,0.000,0.000,0.000,0.000,0.000,0.00,0.00,0.00,0.0,0.0,
116,1768209461802,24950,0.00,0.00,31.26,0.02,0.00,0.00,0.00,0.00,0,0,0,0,0.0000,0.0000,0.00,0.00,0.00,0.000,0.000,0.000,0.000,0.000,0.000,0.00,0.00,0.00,0.0,0.0,
117,1768209462002,25150,0.00,0.00,31.52,0.00,0.00,0.00,0.00,0.00,0,0,0,0,0.0000,0.0000,0.00,0.00,0.00,0.000,0.000,0.000,0.000,0.000,0.000,0.00,0.00,0.00,0.0,0.0,
118,1768209463202,25350,0.00,0.00,31.04,0.00,0.00,0.00,0.00,0.00,0,0,0,0,0.0000,0.0000,0.00,0.00,0.00,0.000,0.000,0.000,0.000,0.000,0.000,0.00,0.00,0.00,0.0,0.0,
119,1768209463402,25550,0.00,0.00,31.04,0.07,0.00,0.00,0.00,0.00,0,0,0,0,0.0000,0.0000,0.00,0.00,0.00,0.000,0.000,0.000,0.000,0.000,0.000,0.00,0.00,0.00,0.0,0.0,
120,1768209463602,25750,0.00,0.00,31.15,0.00,0.00,0.00,0.00,0.00,0,0,0,0,0.0000,0.0000,0.00,0.00,0.00,0.000,0.000,0.000,0.000,0.000,0.000,0.00,0.00,0.00,0.0,0.0,
121,1768209463802,25950,0.00,0.00,31.34,0.00,0.00,0.00,0.00,0.00,0,0,0,0,0.0000,0.0000,0.00,0.00,0.00,0.000,0.000,0.000,0.000,0.000,0.000,0.00,0.00,0.00,0.0,0.0,
122,1768209464002,26150,0.00,0.00,31.41,0.00,0.00,0.00,0.00,0.00,0,0,0,0,0.0000,0.0000,0.00,0.00,0.00,0.000,0.000,0.000,0.000,0.000,0.000,0.00,0.00,0.00,0.0,0.0,
123,1768209465202,26350,0.00,0.00,31.01,0.00,0.00,0.00,0.00,0.00,0,0,0,0,0.0000,0.0000,0.00,0.00,0.00,0.000,0.000,0.000,0.000,0.000,0.000,0.00,0.00,0.00,0.0,0.0,
124,1768209465402,26550,0.00,0.00,31.45,0.00,0.00,0.00,0.00,0.00,0,0,0,0,0.0000,0.0000,0.00,0.00,0.00,0.000,0.000,0.000,0.000,0.000,0.000,0.00,0.00,0.00,0.0,0.0,
125,1768209465602,26750,0.00,0.00,31.19,0.09,0.00,0.00,0.00,0.00,0,0,0,0,0.0000,0.0000,0.00,0.00,0.00,0.000,0.000,0.000,0.000,0.000,0.000,0.00,0.00,0.00,0.0,0.0,
126,1768209465802,26950,0.00,0.00,31.17,0.00,0.00,0.00,0.00,0.00,0,0,0,0,0.0000,0.0000,0.00,0.00,0.00,0.000,0.000,0.000,0.000,0.000,0.000,0.00,0.00,0.00,0.0,0.0,
127,1768209466002,27150,0.00,0.00,31.06,0.00,0.00,0.00,0.00,0.00,0,0,0,0,0.0000,0.0000,0.00,0.00,0.00,0.000,0.000,0.000,0.000,0.000,0.000,0.00,0.00,0.00,0.0,0.0,
128,1768209467202,27350,0.00,0.00,31.12,0.00,0.00,0.00,0.00,0.00,0,0,0,0,0.0000,0.0000,0.00,0.00,0.00,0.000,0.000,0.000,0.000,0.000,0.000,0.00,0.00,0.00,0.0,0.0,
129,1768209467402,27550,0.00,0.00,31.21,0.15,0.00,0.00,0.00,0.00,0,0,0,0,0.0000,0.0000,0.00,0.00,0.00,0.000,0.000,0.000,0.000,0.000,0.000,0.00,0.00,0.00,0.0,0.0,
130,1768209467602,27750,0.00,0.00,31.52,0.00,0.00,0.00,0.00,0.00,0,0,0,0,0.0000,0.0000,0.00,0.00,0.00,0.000,0.000,0.000,0.000,0.000,0.000,0.00,0.00,0.00,0.0,0.0,
131,1768209467802,27950,0.00,0.00,30.97,0.00,0.00,0.00,0.00,0.00,0,0,0,0,0.0000,0.0000,0.00,0.00,0.00,0.000,0.000,0.000,0.000,0.000,0.000,0.00,0.00,0.00,0.0,0.0,
132,1768209468002,28150,0.00,0.00,31.30,0.00,0.00,0.00,0.00,0.00,0,0,0,0,0.0000,0.0000,0.00,0.00,0.00,0.000,0.000,0.000,0.000,0.000,0.000,0.00,0.00,0.00,0.0,0.0,
133,1768209469202,28350,0.00,0.00,31.12,0.00,0.00,0.00,0.00,0.00,0,0,0,0,0.0000,0.0000,0.00,0.00,0.00,0.000,0.000,0.000,0.000,0.000,0.000,0.00,0.00,0.00,0.0,0.0,
134,1768209469402,28550,0.00,0.00,31.21,0.00,0.00,0.00,0.00,0.00,0,0,0,0,0.0000,0.0000,0.00,0.00,0.00,0.000,0.000,0.000,0.000,0.000,0.000,0.00,0.00,0.00,0.0,0.0,
135,1768209469602,28750,0.00,0.00,31.14,0.00,0.00,0.00,0.00,0.00,0,0,0,0,0.0000,0.0000,0.00,0.00,0.00,0.000,0.000,0.000,0.000,0.000,0.000,0.00,0.00,0.00,0.0,0.0,
136,1768209469802,28950,0.00,0.00,31.52,0.00,0.00,0.00,0.00,0.00,0,0,0,0,0.0000,0.0000,0.00,0.00,0.00,0.000,0.000,0.000,0.000,0.000,0.000,0.00,0.00,0.00,0.0,0.0,
137,1768209470002,29150,0.00,0.00,31.41,0.00,0.00,0.00,0.00,0.00,0,0,0,0,0.0000,0.0000,0.00,0.00,0.00,0.000,0.000,0.000,0.000,0.000,0.000,0.00,0.00,0.00,0.0,0.0,
138,1768209471202,29350,0.00,0.00,31.15,0.00,0.00,0.00,0.00,0.00,0,0,0,0,0.0000,0.0000,0.00,0.00,0.00,0.000,0.000,0.000,0.000,0.000,0.000,0.00,0.00,0.00,0.0,0.0,
139,1768209471402,29550,0.00,0.00,31.04,0.00,0.00,0.00,0.00,0.00,0,0,0,0,0.0000,0.0000,0.00,0.00,0.00,0.000,0.000,0.000,0.000,0.000,0.000,0.00,0.00,0.00,0.0,0.0,
140,1768209471602,29750,0.00,0.00,31.19,0.00,0.00,0.00,0.00,0.00,0,0,0,0,0.0000,0.0000,0.00,0.00,0.00,0.000,0.000,0.000,0.000,0.000,0.000,0.00,0.00,0.00,0.0,0.0,
141,1768209471802,29950,0.00,0.00,31.52,0.00,0.00,0.00,0.00,0.00,0,0,0,0,0.0000,0.0000,0.00,0.00,0.00,0.000,0.000,0.000,0.000,0.000,0.000,0.00,0.00,0.00,0.0,0.0,
142,1768209472002,30150,0.00,0.00,30.97,0.09,0.00,0.00,0.00,0.00,0,0,0,0,0.0000,0.0000,0.00,0.00,0.00,0.000,0.000,0.000,0.000,0.000,0.000,0.00,0.00,0.00,0.0,0.0,
143,1768209473202,30350,0.00,0.00,31.26,0.00,0.00,0.00,0.00,0.00,0,0,0,0,0.0000,0.0000,0.00,0.00,0.00,0.000,0.000,0.000,0.000,0.000,0.000,0.00,0.00,0.00,0.0,0.0,
144,1768209473402,30550,0.00,0.00,30.09,0.00,0.00,0.00,0.00,0.00,0,0,0,0,0.0000,0.0000,0.00,0.00,0.00,0.000,0.000,0.000,0.000,0.000,0.000,0.00,0.00,0.00,0.0,0.0,
145,1768209473602,30750,0.00,0.00,31.41,0.00,0.00,0.00,0.00,0.00,0,0,0,0,0.0000,0.0000,0.00,0.00,0.00,0.000,0.000,0.000,0.000,0.000,0.000,0.00,0.00,0.00,0.0,0.0,
146,1768209473802,30950,0.00,0.00,31.26,0.00,0.00,0.00,0.00,0.00,0,0,0,0,0.0000,0.0000,0.00,0.00,0.00,0.000,0.000,0.000,0.000,0.000,0.000,0.00,0.00,0.00,0.0,0.0,
147,1768209474002,31150,0.00,0.00,31.19,0.00,0.00,0.00,0.00,0.00,0,0,0,0,0.0000,0.0000,0.00,0.00,0.00,0.000,0.000,0.000,0.000,0.000,0.000,0.00,0.00,0.00,0.0,0.0,
148,1768209475202,31350,0.00,0.00,31.21,0.00,0.00,0.00,0.00,0.00,0,0,0,0,0.0000,0.0000,0.00,0.00,0.00,0.000,0.000,0.000,0.000,0.000,0.000,0.00,0.00,0.00,0.0,0.0,
149,1768209475402,31550,0.00,0.00,31.04,0.02,0.00,0.00,0.00,0.00,0,0,0,0,0.0000,0.0000,0.00,0.00,0.00,0.000,0.000,0.000,0.000,0.000,0.000,0.00,0.00,0.00,0.0,0.0,
150,1768209475602,31750,0.00,0.00,31.63,0.00,0.00,0.00,0.00,0.00,0,0,0,0,0.0000,0.0000,0.00,0.00,0.00,0.000,0.000,0.000,0.000,0.000,0.000,0.00,0.00,0.00,0.0,0.0,
151,1768209475802,31950,0.00,0.00,31.26,0.00,0.00,0.00,0.00,0.00,0,0,0,0,0.0000,0.0000,0.00,0.00,0.00,0.000,0.000,0.000,0.000,0.000,0.000,0.00,0.00,0.00,0.0,0.0,
152,1768209476002,32150,0.00,0.00,31.14,0.00,0.00,0.00,0.00,0.00,0,0,0,0,0.0000,0.0000,0.00,0.00,0.00,0.000,0.000,0.000,0.000,0.000,0.000,0.00,0.00,0.00,0.0,0.0,
153,1768209477202,32350,0.00,0.00,31.12,0.00,0.00,0.00,0.00,0.00,0,0,0,0,0.0000,0.0000,0.00,0.00,0.00,0.000,0.000,0.000,0.000,0.000,0.000,0.00,0.00,0.00,0.0,0.0,
154,1768209477402,32550,0.00,0.00,31.12,0.00,0.00,0.00,0.00,0.00,0,0,0,0,0.0000,0.0000,0.00,0.00,0.00,0.000,0.000,0.000,0.000,0.000,0.000,0.00,0.00,0.00,0.0,0.0,
155,1768209477602,32750,0.00,0.00,31.63,0.00,0.00,0.00,0.00,0.00,0,0,0,0,0.0000,0.0000,0.00,0.00,0.00,0.000,0.000,0.000,0.000,0.000,0.000,0.00,0.00,0.00,0.0,0.0,
156,1768209477802,32950,0.00,0.00,30.93,0.26,0.00,0.00,0.00,0.00,0,0,0,0,0.0000,0.0000,0.00,0.00,0.00,0.000,0.000,0.000,0.000,0.000,0.000,0.00,0.00,0.00,0.0,0.0,
157,1768209478002,33150,0.00,0.00,31.23,0.13,0.00,0.00,0.00,0.00,0,0,0,0,0.0000,0.0000,0.00,0.00,0.00,0.000,0.000,0.000,0.000,0.000,0.000,0.00,0.00,0.00,0.0,0.0,
158,1768209479202,33350,12.00,0.00,31.45,0.00,0.00,0.00,0.00,0.00,0,0,0,0,0.0000,0.0000,0.00,0.00,0.00,0.000,0.000,0.000,0.000,0.000,0.000,0.00,0.00,0.00,0.0,0.0,
159,1768209479402,33550,0.00,0.00,31.45,0.00,0.00,0.00,0.00,0.00,0,0,0,0,0.0000,0.0000,0.00,0.00,0.00,0.000,0.000,0.000,0.000,0.000,0.000,0.00,0.00,0.00,0.0,0.0,
160,1768209479602,33750,0.00,0.00,31.23,0.09,0.00,0.00,0.00,0.00,0,0,0,0,0.0000,0.0000,0.00,0.00,0.00,0.000,0.000,0.000,0.000,0.000,0.000,0.00,0.00,0.00,0.0,0.0,
161,1768209479802,33950,0.00,0.00,31.30,0.00,0.00,0.00,0.00,0.00,0,0,0,0,0.0000,0.0000,0.00,0.00,0.00,0.000,0.000,0.000,0.000,0.000,0.000,0.00,0.00,0.00,0.0,0.0,
162,1768209480002,34150,0.00,0.00,31.34,0.00,0.00,0.00,0.00,0.00,0,0,0,0,0.0000,0.0000,0.00,0.00,0.00,0.000,0.000,0.000,0.000,0.000,0.000,0.00,0.00,0.00,0.0,0.0,
163,1768209481202,34350,0.00,0.00,31.21,0.00,0.00,0.00,0.00,0.00,0,0,0,0,0.0000,0.0000,0.00,0.00,0.00,0.000,0.000,0.000,0.000,0.000,0.000,0.00,0.00,0.00,0.0,0.0,
164,1768209481402,34550,12.00,0.00,31.06,0.00,0.00,0.00,0.00,0.00,0,0,0,0,0.0000,0.0000,0.00,0.00,0.00,0.000,0.000,0.000,0.000,0.000,0.000,0.00,0.00,0.00,0.0,0.0,
165,1768209481602,34750,0.00,0.00,31.01,0.00,0.00,0.00,0.00,0.00,0,0,0,0,0.0000,0.0000,0.00,0.00,0.00,0.000,0.000,0.000,0.000,0.000,0.000,0.00,0.00,0.00,0.0,0.0,
166,1768209481802,34950,0.00,0.00,30.90,0.00,0.00,0.00,0.00,0.00,0,0,0,0,0.0000,0.0000,0.00,0.00,0.00,0.000,0.000,0.000,0.000,0.000,0.000,0.00,0.00,0.00,0.0,0.0,
167,1768209482002,35150,0.00,0.00,31.04,0.00,0.00,0.00,0.00,0.00,0,0,0,0,0.0000,0.0000,0.00,0.00,0.00,0.000,0.000,0.000,0.000,0.000,0.000,0.00,0.00,0.00,0.0,0.0,
168,1768209483202,35350,0.00,0.00,31.12,0.00,0.00,0.00,0.00,0.00,0,0,0,0,0.0000,0.0000,0.00,0.00,0.00,0.000,0.000,0.000,0.000,0.000,0.000,0.00,0.00,0.00,0.0,0.0,
169,1768209483402,35550,0.00,0.00,31.59,0.00,0.00,0.00,0.00,0.00,0,0,0,0,0.0000,0.0000,0.00,0.00,0.00,0.000,0.000,0.000,0.000,0.000,0.000,0.00,0.00,0.00,0.0,0.0,
170,1768209483602,35750,0.00,0.00,31.01,0.00,0.00,0.00,0.00,0.00,0,0,0,0,0.0000,0.0000,0.00,0.00,0.00,0.000,0.000,0.000,0.000,0.000,0.000,0.00,0.00,0.00,0.0,0.0,
171,1768209483802,35950,0.00,0.00,30.99,0.31,0.00,0.00,0.00,0.00,0,0,0,0,0.0000,0.0000,0.00,0.00,0.00,0.000,0.000,0.000,0.000,0.000,0.000,0.00,0.00,0.00,0.0,0.0,
172,1768209484002,36150,0.00,0.00,31.63,0.00,0.00,0.00,0.00,0.00,0,0,0,0,0.0000,0.0000,0.00,0.00,0.00,0.000,0.000,0.000,0.000,0.000,0.000,0.00,0.00,0.00,0.0,0.0,
173,1768209485202,36350,0.00,0.00,31.25,0.00,0.00,0.00,0.00,0.00,0,0,0,0,0.0000,0.0000,0.00,0.00,0.00,0.000,0.000,0.000,0.000,0.000,0.000,0.00,0.00,0.00,0.0,0.0,
174,1768209485402,36550,0.00,0.00,31.26,0.00,0.00,0.00,0.00,0.00,0,0,0,0,0.0000,0.0000,0.00,0.00,0.00,0.000,0.000,0.000,0.000,0.000,0.000,0.00,0.00,0.00,0.0,0.0,
175,1768209485602,36750,0.00,0.00,30.90,0.24,0.00,0.00,0.00,0.00,0,0,0,0,0.0000,0.0000,0.00,0.00,0.00,0.000,0.000,0.000,0.000,0.000,0.000,0.00,0.00,0.00,0.0,0.0,
176,1768209485802,36950,0.00,0.00,31.34,0.00,0.00,0.00,0.00,0.00,0,0,0,0,0.0000,0.0000,0.00,0.00,0.00,0.000,0.000,0.000,0.000,0.000,0.000,0.00,0.00,0.00,0.0,0.0,
177,1768209486002,37150,0.00,0.00,31.01,0.00,0.00,0.00,0.00,0.00,0,0,0,0,0.0000,0.0000,0.00,0.00,0.00,0.000,0.000,0.000,0.000,0.000,0.000,0.00,0.00,0.00,0.0,0.0,
178,1768209487202,37350,0.00,0.00,30.95,0.00,0.00,0.00,0.00,0.00,0,0,0,0,0.0000,0.0000,0.00,0.00,0.00,0.000,0.000,0.000,0.000,0.000,0.000,0.00,0.00,0.00,0.0,0.0,
179,1768209487402,37550,0.00,0.00,31.01,0.20,0.00,0.00,0.00,0.00,0,0,0,0,0.0000,0.0000,0.00,0.00,0.00,0.000,0.000,0.000,0.000,0.000,0.000,0.00,0.00,0.00,0.0,0.0,
180,1768209487602,37750,0.00,0.00,31.32,0.00,0.00,0.00,0.00,0.00,0,0,0,0,0.0000,0.0000,0.00,0.00,0.00,0.000,0.000,0.000,0.000,0.000,0.000,0.00,0.00,0.00,0.0,0.0,
181,1768209487802,37950,0.00,0.00,31.59,0.00,0.00,0.00,0.00,0.00,0,0,0,0,0.0000,0.0000,0.00,0.00,0.00,0.000,0.000,0.000,0.000,0.000,0.000,0.00,0.00,0.00,0.0,0.0,
182,1768209488002,38150,0.00,0.00,31.30,0.00,0.00,0.00,0.00,0.00,0,0,0,0,0.0000,0.0000,0.00,0.00,0.00,0.000,0.000,0.000,0.000,0.000,0.000,0.00,0.00,0.00,0.0,0.0,
183,1768209489202,38350,0.00,0.00,31.19,0.18,0.00,0.00,0.00,0.00,0,0,0,0,0.0000,0.0000,0.00,0.00,0.00,0.000,0.000,0.000,0.000,0.000,0.000,0.00,0.00,0.00,0.0,0.0,
184,1768209489402,38550,0.00,0.00,31.26,0.00,0.00,0.00,0.00,0.00,0,0,0,0,0.0000,0.0000,0.00,0.00,0.00,0.000,0.000,0.000,0.000,0.000,0.000,0.00,0.00,0.00,0.0,0.0,
185,1768209489602,38750,0.00,0.00,31.06,0.00,0.00,0.00,0.00,0.00,0,0,0,0,0.0000,0.0000,0.00,0.00,0.00,0.000,0.000,0.000,0.000,0.000,0.000,0.00,0.00,0.00,0.0,0.0,
186,1768209489802,38950,0.00,0.00,31.01,0.13,0.00,0.00,0.00,0.00,0,0,0,0,0.0000,0.0000,0.00,0.00,0.00,0.000,0.000,0.000,0.000,0.000,0.000,0.00,0.00,0.00,0.0,0.0,
187,1768209490002,39150,0.00,0.00,30.09,0.51,0.00,0.00,0.00,0.00,0,0,0,0,0.0000,0.0000,0.00,0.00,0.00,0.000,0.000,0.000,0.000,0.000,0.000,0.00,0.00,0.00,0.0,0.0,
188,1768209491202,39350,0.00,0.00,31.01,0.38,0.00,0.00,0.00,0.00,0,0,0,0,0.0000,0.0000,0.00,0.00,0.00,0.000,0.000,0.000,0.000,0.000,0.000,0.00,0.00,0.00,0.0,0.0,
189,1768209491402,39550,0.00,0.00,31.17,0.00,0.00,0.00,0.00,0.00,0,0,0,0,0.0000,0.0000,0.00,0.00,0.00,0.000,0.000,0.000,0.000,0.000,0.000,0.00,0.00,0.00,0.0,0.0,
190,1768209491602,39750,0.00,0.00,31.01,0.00,0.00,0.00,0.00,0.00,0,0,0,0,0.0000,0.0000,0.00,0.00,0.00,0.000,0.000,0.000,0.000,0.000,0.000,0.00,0.00,0.00,0.0,0.0,
191,1768209491802,39950,0.00,0.00,31.30,0.00,0.00,0.00,0.00,0.00,0,0,0,0,0.0000,0.0000,0.00,0.00,0.00,0.000,0.000,0.000,0.000,0.000,0.000,0.00,0.00,0.00,0.0,0.0,
192,1768209492002,40150,0.00,0.00,31.41,0.00,0.00,0.00,0.00,0.00,0,0,0,0,0.0000,0.0000,0.00,0.00,0.00,0.000,0.000,0.000,0.000,0.000,0.000,0.00,0.00,0.00,0.0,0.0,
193,1768209493202,40350,0.00,0.00,31.06,0.00,0.00,0.00,0.00,0.00,0,0,0,0,0.0000,0.0000,0.00,0.00,0.00,0.000,0.000,0.000,0.000,0.000,0.000,0.00,0.00,0.00,0.0,0.0,
194,1768209493402,40550,0.00,0.00,31.23,0.00,0.00,0.00,0.00,0.00,0,0,0,0,0.0000,0.0000,0.00,0.00,0.00,0.000,0.000,0.000,0.000,0.000,0.000,0.00,0.00,0.00,0.0,0.0,
195,1768209493602,40750,0.00,0.00,31.04,0.00,0.00,0.00,0.00,0.00,0,0,0,0,0.0000,0.0000,0.00,0.00,0.00,0.000,0.000,0.000,0.000,0.000,0.000,0.00,0.00,0.00,0.0,0.0,
196,1768209493802,40950,0.00,0.00,31.19,0.00,0.00,0.00,0.00,0.00,0,0,0,0,0.0000,0.0000,0.00,0.00,0.00,0.000,0.000,0.000,0.000,0.000,0.000,0.00,0.00,0.00,0.0,0.0,
197,1768209494002,41150,0.00,0.00,31.01,0.00,0.00,0.00,0.00,0.00,0,0,0,0,0.0000,0.0000,0.00,0.00,0.00,0.000,0.000,0.000,0.000,0.000,0.000,0.00,0.00,0.00,0.0,0.0,
198,1768209495202,41350,0.00,0.00,31.56,0.00,0.00,0.00,0.00,0.00,0,0,0,0,0.0000,0.0000,0.00,0.00,0.00,0.000,0.000,0.000,0.000,0.000,0.000,0.00,0.00,0.00,0.0,0.0,
199,1768209495402,41550,12.00,0.00,31.59,0.00,0.00,0.00,0.00,0.00,0,0,0,0,0.0000,0.0000,0.00,0.00,0.00,0.000,0.000,0.000,0.000,0.000,0.000,0.00,0.00,0.00,0.0,0.0,
200,1768209495602,41750,0.00,0.00,31.19,0.05,0.00,0.00,0.00,0.00,0,0,0,0,0.0000,0.0000,0.00,0.00,0.00,0.000,0.000,0.000,0.000,0.000,0.000,0.00,0.00,0.00,0.0,0.0,
201,1768209495802,41950,0.00,0.00,31.15,0.00,0.00,0.00,0.00,0.00,0,0,0,0,0.0000,0.0000,0.00,0.00,0.00,0.000,0.000,0.000,0.000,0.000,0.000,0.00,0.00,0.00,0.0,0.0,
202,1768209496002,42150,12.00,0.00,31.52,0.00,0.00,0.00,0.00,0.00,0,0,0,0,0.0000,0.0000,0.00,0.00,0.00,0.000,0.000,0.000,0.000,0.000,0.000,0.00,0.00,0.00,0.0,0.0,
203,1768209497202,42350,0.00,0.00,31.03,0.00,0.00,0.00,0.00,0.00,0,0,0,0,0.0000,0.0000,0.00,0.00,0.00,0.000,0.000,0.000,0.000,0.000,0.000,0.00,0.00,0.00,0.0,0.0,
204,1768209497402,42550,0.00,0.00,31.12,0.00,0.00,0.00,0.00,0.00,0,0,0,0,0.0000,0.0000,0.00,0.00,0.00,0.000,0.000,0.000,0.000,0.000,0.000,0.00,0.00,0.00,0.0,0.0,
205,1768209497602,42750,0.00,0.00,31.15,0.07,0.00,0.00,0.00,0.00,0,0,0,0,0.0000,0.0000,0.00,0.00,0.00,0.000,0.000,0.000,0.000,0.000,0.000,0.00,0.00,0.00,0.0,0.0,
206,1768209497802,42950,0.00,0.00,31.39,0.00,0.00,0.00,0.00,0.00,0,0,0,0,0.0000,0.0000,0.00,0.00,0.00,0.000,0.000,0.000,0.000,0.000,0.000,0.00,0.00,0.00,0.0,0.0,
207,1768209498002,43150,0.00,0.00,31.25,0.00,0.00,0.00,0.00,0.00,0,0,0,0,0.0000,0.0000,0.00,0.00,0.00,0.000,0.000,0.000,0.000,0.000,0.000,0.00,0.00,0.00,0.0,0.0,
208,1768209499202,43350,0.00,0.00,30.97,0.00,0.00,0.00,0.00,0.00,0,0,0,0,0.0000,0.0000,0.00,0.00,0.00,0.000,0.000,0.000,0.000,0.000,0.000,0.00,0.00,0.00,0.0,0.0,
209,1768209499402,43550,0.00,0.00,31.14,0.07,0.00,0.00,0.00,0.00,0,0,0,0,0.0000,0.0000,0.00,0.00,0.00,0.000,0.000,0.000,0.000,0.000,0.000,0.00,0.00,0.00,0.0,0.0,
210,1768209499602,43750,0.00,0.00,30.93,0.00,0.00,0.00,0.00,0.00,0,0,0,0,0.0000,0.0000,0.00,0.00,0.00,0.000,0.000,0.000,0.000,0.000,0.000,0.00,0.00,0.00,0.0,0.0,
211,1768209499802,43950,0.00,0.00,31.12,0.00,0.00,0.00,0.00,0.00,0,0,0,0,0.0000,0.0000,0.00,0.00,0.00,0.000,0.000,0.000,0.000,0.000,0.000,0.00,0.00,0.00,0.0,0.0,
212,1768209500002,44150,0.00,0.00,31.21,0.02,0.00,0.00,0.00,0.00,0,0,0,0,0.0000,0.0000,0.00,0.00,0.00,0.000,0.000,0.000,0.000,0.000,0.000,0.00,0.00,0.00,0.0,0.0,
213,1768209501202,44350,0.00,0.00,31.04,0.00,0.00,0.00,0.00,0.00,0,0,0,0,0.0000,0.0000,0.00,0.00,0.00,0.000,0.000,0.000,0.000,0.000,0.000,0.00,0.00,0.00,0.0,0.0,
214,1768209501402,44550,0.00,0.00,31.12,0.00,0.00,0.00,0.00,0.00,0,0,0,0,0.0000,0.0000,0.00,0.00,0.00,0.000,0.000,0.000,0.000,0.000,0.000,0.00,0.00,0.00,0.0,0.0,
215,1768209501602,44750,0.00,0.00,31.17,0.00,0.00,0.00,0.00,0.00,0,0,0,0,0.0000,0.0000,0.00,0.00,0.00,0.000,0.000,0.000,0.000,0.000,0.000,0.00,0.00,0.00,0.0,0.0,
216,1768209501802,44950,0.00,0.00,31.30,0.00,0.00,0.00,0.00,0.00,0,0,0,0,0.0000,0.0000,0.00,0.00,0.00,0.000,0.000,0.000,0.000,0.000,0.000,0.00,0.00,0.00,0.0,0.0,
217,1768209502002,45150,0.00,0.00,31.34,0.00,0.00,0.00,0.00,0.00,0,0,0,0,0.0000,0.0000,0.00,0.00,0.00,0.000,0.000,0.000,0.000,0.000,0.000,0.00,0.00,0.00,0.0,0.0,
218,1768209503202,45350,0.00,0.00,31.03,0.16,0.00,0.00,0.00,0.00,0,0,0,0,0.0000,0.0000,0.00,0.00,0.00,0.000,0.000,0.000,0.000,0.000,0.000,0.00,0.00,0.00,0.0,0.0,
219,1768209503402,45550,0.00,0.00,30.99,0.00,0.00,0.00,0.00,0.00,0,0,0,0,0.0000,0.0000,0.00,0.00,0.00,0.000,0.000,0.000,0.000,0.000,0.000,0.00,0.00,0.00,0.0,0.0,
220,1768209503602,45750,0.00,0.00,31.04,0.00,0.00,0.00,0.00,0.00,0,0,0,0,0.0000,0.0000,0.00,0.00,0.00,0.000,0.000,0.000,0.000,0.000,0.000,0.00,0.00,0.00,0.0,0.0,
221,1768209503802,45950,0.00,0.00,31.21,0.00,0.00,0.00,0.00,0.00,0,0,0,0,0.0000,0.0000,0.00,0.00,0.00,0.000,0.000,0.000,0.000,0.000,0.000,0.00,0.00,0.00,0.0,0.0,
222,1768209504002,46150,0.00,0.00,31.23,0.00,0.00,0.00,0.00,0.00,0,0,0,0,0.0000,0.0000,0.00,0.00,0.00,0.000,0.000,0.000,0.000,0.000,0.000,0.00,0.00,0.00,0.0,0.0,
223,1768209505202,46350,0.00,0.00,31.04,0.04,0.00,0.00,0.00,0.00,0,0,0,0,0.0000,0.0000,0.00,0.00,0.00,0.000,0.000,0.000,0.000,0.000,0.000,0.00,0.00,0.00,0.0,0.0,
224,1768209505402,46550,0.00,0.00,31.06,0.00,0.00,0.00,0.00,0.00,0,0,0,0,0.0000,0.0000,0.00,0.00,0.00,0.000,0.000,0.000,0.000,0.000,0.000,0.00,0.00,0.00,0.0,0.0,
225,1768209505602,46750,0.00,0.00,31.04,0.00,0.00,0.00,0.00,0.00,0,0,0,0,0.0000,0.0000,0.00,0.00,0.00,0.000,0.000,0.000,0.000,0.000,0.000,0.00,0.00,0.00,0.0,0.0,
226,1768209505802,46950,0.00,0.00,31.36,0.00,0.00,0.00,0.00,0.00,0,0,0,0,0.0000,0.0000,0.00,0.00,0.00,0.000,0.000,0.000,0.000,0.000,0.000,0.00,0.00,0.00,0.0,0.0,
227,1768209506002,47150,0.00,0.00,31.41,0.00,0.00,0.00,0.00,0.00,0,0,0,0,0.0000,0.0000,0.00,0.00,0.00,0.000,0.000,0.000,0.000,0.000,0.000,0.00,0.00,0.00,0.0,0.0,
228,1768209507202,47350,0.00,0.00,30.93,0.00,0.00,0.00,0.00,0.00,0,0,0,0,0.0000,0.0000,0.00,0.00,0.00,0.000,0.000,0.000,0.000,0.000,0.000,0.00,0.00,0.00,0.0,0.0,
229,1768209507402,47550,0.00,0.00,30.24,0.00,0.00,0.00,0.00,0.00,0,0,0,0,0.0000,0.0000,0.00,0.00,0.00,0.000,0.000,0.000,0.000,0.000,0.000,0.00,0.00,0.00,0.0,0.0,
230,1768209507602,47750,0.00,0.00,30.22,0.00,0.00,0.00,0.00,0.00,0,0,0,0,0.0000,0.0000,0.00,0.00,0.00,0.000,0.000,0.000,0.000,0.000,0.000,0.00,0.00,0.00,0.0,0.0,
231,1768209507802,47950,0.00,0.00,31.56,0.00,0.00,0.00,0.00,0.00,0,0,0,0,0.0000,0.0000,0.00,0.00,0.00,0.000,0.000,0.000,0.000,0.000,0.000,0.00,0.00,0.00,0.0,0.0,
232,1768209508002,48150,0.00,0.00,31.54,0.00,0.00,0.00,0.00,0.00,0,0,0,0,0.0000,0.0000,0.00,0.00,0.00,0.000,0.000,0.000,0.000,0.000,0.000,0.00,0.00,0.00,0.0,0.0,
233,1768209509202,48350,0.00,0.00,31.04,0.00,0.00,0.00,0.00,0.00,0,0,0,0,0.0000,0.0000,0.00,0.00,0.00,0.000,0.000,0.000,0.000,0.000,0.000,0.00,0.00,0.00,0.0,0.0,
234,1768209509402,48550,0.00,0.00,30.90,0.00,0.00,0.00,0.00,0.00,0,0,0,0,0.0000,0.0000,0.00,0.00,0.00,0.000,0.000,0.000,0.000,0.000,0.000,0.00,0.00,0.00,0.0,0.0,
235,1768209509602,48750,0.00,0.00,31.06,0.31,0.00,0.00,0.00,0.00,0,0,0,0,0.0000,0.0000,0.00,0.00,0.00,0.000,0.000,0.000,0.000,0.000,0.000,0.00,0.00,0.00,0.0,0.0,
236,1768209509802,48950,0.00,0.00,31.15,0.00,0.00,0.00,0.00,0.00,0,0,0,0,0.0000,0.0000,0.00,0.00,0.00,0.000,0.000,0.000,0.000,0.000,0.000,0.00,0.00,0.00,0.0,0.0,
237,1768209510002,49150,0.00,0.00,31.21,0.02,0.00,0.00,0.00,0.00,0,0,0,0,0.0000,0.0000,0.00,0.00,0.00,0.000,0.000,0.000,0.000,0.000,0.000,0.00,0.00,0.00,0.0,0.0,
238,1768209511202,49350,0.00,0.00,31.34,0.00,0.00,0.00,0.00,0.00,0,0,0,0,0.0000,0.0000,0.00,0.00,0.00,0.000,0.000,0.000,0.000,0.000,0.000,0.00,0.00,0.00,0.0,0.0,
239,1768209511402,49550,0.00,0.00,31.01,0.00,0.00,0.00,0.00,0.00,0,0,0,0,0.0000,0.0000,0.00,0.00,0.00,0.000,0.000,0.000,0.000,0.000,0.000,0.00,0.00,0.00,0.0,0.0,
240,1768209511602,49750,0.00,0.00,31.23,0.00,0.00,0.00,0.00,0.00,0,0,0,0,0.0000,0.0000,0.00,0.00,0.00,0.000,0.000,0.000,0.000,0.000,0.000,0.00,0.00,0.00,0.0,0.0,
241,1768209511802,49950,12.00,0.00,31.30,0.00,0.00,0.00,0.00,0.00,0,0,0,0,0.0000,0.0000,0.00,0.00,0.00,0.000,0.000,0.000,0.000,0.000,0.000,0.00,0.00,0.00,0.0,0.0,
242,1768209512002,50150,0.00,0.00,31.52,0.00,0.00,0.00,0.00,0.00,0,0,0,0,0.0000,0.0000,0.00,0.00,0.00,0.000,0.000,0.000,0.000,0.000,0.000,0.00,0.00,0.00,0.0,0.0,
243,1768209513202,50350,0.00,0.00,30.97,0.00,0.00,0.00,0.00,0.00,0,0,0,0,0.0000,0.0000,0.00,0.00,0.00,0.000,0.000,0.000,0.000,0.000,0.000,0.00,0.00,0.00,0.0,0.0,
244,1768209513402,50550,0.00,0.00,31.26,0.00,0.00,0.00,0.00,0.00,0,0,0,0,0.0000,0.0000,0.00,0.00,0.00,0.000,0.000,0.000,0.000,0.000,0.000,0.00,0.00,0.00,0.0,0.0,
245,1768209513602,50750,0.00,0.00,30.97,0.40,0.00,0.00,0.00,0.00,0,0,0,0,0.0000,0.0000,0.00,0.00,0.00,0.000,0.000,0.000,0.000,0.000,0.000,0.00,0.00,0.00,0.0,0.0,
246,1768209513802,50950,0.00,0.00,31.48,0.02,0.00,0.00,0.00,0.00,0,0,0,0,0.0000,0.0000,0.00,0.00,0.00,0.000,0.000,0.000,0.000,0.000,0.000,0.00,0.00,0.00,0.0,0.0,
247,1768209514002,51150,0.00,0.00,31.19,0.00,0.00,0.00,0.00,0.00,0,0,0,0,0.0000,0.0000,0.00,0.00,0.00,0.000,0.000,0.000,0.000,0.000,0.000,0.00,0.00,0.00,0.0,0.0,
248,1768209515202,51350,0.00,0.00,31.23,0.00,0.00,0.00,0.00,0.00,0,0,0,0,0.0000,0.0000,0.00,0.00,0.00,0.000,0.000,0.000,0.000,0.000,0.000,0.00,0.00,0.00,0.0,0.0,
249,1768209515402,51550,0.00,0.00,31.19,0.00,0.00,0.00,0.00,0.00,0,0,0,0,0.0000,0.0000,0.00,0.00,0.00,0.000,0.000,0.000,0.000,0.000,0.000,0.00,0.00,0.00,0.0,0.0,
250,1768209515602,51750,12.00,0.00,31.26,0.00,0.00,0.00,0.00,0.00,0,0,0,0,0.0000,0.0000,0.00,0.00,0.00,0.000,0.000,0.000,0.000,0.000,0.000,0.00,0.00,0.00,0.0,0.0,
251,1768209515802,51950,12.00,0.00,31.23,0.00,0.00,0.00,0.00,0.00,0,0,0,0,0.0000,0.0000,0.00,0.00,0.00,0.000,0.000,0.000,0.000,0.000,0.000,0.00,0.00,0.00,0.0,0.0,
252,1768209516002,52150,0.00,0.00,31.04,0.18,0.00,0.00,0.00,0.00,0,0,0,0,0.0000,0.0000,0.00,0.00,0.00,0.000,0.000,0.000,0.000,0.000,0.000,0.00,0.00,0.00,0.0,0.0,
253,1768209517202,52350,0.00,0.00,31.19,0.00,0.00,0.00,0.00,0.00,0,0,0,0,0.0000,0.0000,0.00,0.00,0.00,0.000,0.000,0.000,0.000,0.000,0.000,0.00,0.00,0.00,0.0,0.0,
254,1768209517402,52550,0.00,0.00,31.36,0.00,0.00,0.00,0.00,0.00,0,0,0,0,0.0000,0.0000,0.00,0.00,0.00,0.000,0.000,0.000,0.000,0.000,0.000,0.00,0.00,0.00,0.0,0.0,
255,1768209517602,52750,0.00,0.00,31.03,0.02,0.00,0.00,0.00,0.00,0,0,0,0,0.0000,0.0000,0.00,0.00,0.00,0.000,0.000,0.000,0.000,0.000,0.000,0.00,0.00,0.00,0.0,0.0,
256,1768209517802,52950,0.00,0.00,31.01,0.00,0.00,0.00,0.00,0.00,0,0,0,0,0.0000,0.0000,0.00,0.00,0.00,0.000,0.000,0.000,0.000,0.000,0.000,0.00,0.00,0.00,0.0,0.0,
257,1768209518002,53150,12.00,0.00,31.50,0.00,0.00,0.00,0.00,0.00,0,0,0,0,0.0000,0.0000,0.00,0.00,0.00,0.000,0.000,0.000,0.000,0.000,0.000,0.00,0.00,0.00,0.0,0.0,
258,1768209519202,53350,0.00,0.00,31.12,0.00,0.00,0.00,0.00,0.00,0,0,0,0,0.0000,0.0000,0.00,0.00,0.00,0.000,0.000,0.000,0.000,0.000,0.000,0.00,0.00,0.00,0.0,0.0,
259,1768209519402,53550,0.00,0.00,31.04,0.00,0.00,0.00,0.00,0.00,0,0,0,0,0.0000,0.0000,0.00,0.00,0.00,0.000,0.000,0.000,0.000,0.000,0.000,0.00,0.00,0.00,0.0,0.0,
260,1768209519602,53750,0.00,0.00,31.56,0.00,0.00,0.00,0.00,0.00,0,0,0,0,0.0000,0.0000,0.00,0.00,0.00,0.000,0.000,0.000,0.000,0.000,0.000,0.00,0.00,0.00,0.0,0.0,
261,1768209519802,53950,0.00,0.00,31.32,0.00,0.00,0.00,0.00,0.00,0,0,0,0,0.0000,0.0000,0.00,0.00,0.00,0.000,0.000,0.000,0.000,0.000,0.000,0.00,0.00,0.00,0.0,0.0,
262,1768209520002,54150,0.00,0.00,31.30,0.00,0.00,0.00,0.00,0.00,0,0,0,0,0.0000,0.0000,0.00,0.00,0.00,0.000,0.000,0.000,0.000,0.000,0.000,0.00,0.00,0.00,0.0,0.0,
263,1768209521202,54350,0.00,0.00,31.04,0.18,0.00,0.00,0.00,0.00,0,0,0,0,0.0000,0.0000,0.00,0.00,0.00,0.000,0.000,0.000,0.000,0.000,0.000,0.00,0.00,0.00,0.0,0.0,
264,1768209521402,54550,0.00,0.00,30.99,0.04,0.00,0.00,0.00,0.00,0,0,0,0,0.0000,0.0000,0.00,0.00,0.00,0.000,0.000,0.000,0.000,0.000,0.000,0.00,0.00,0.00,0.0,0.0,
265,1768209521602,54750,0.00,0.00,31.52,0.00,0.00,0.00,0.00,0.00,0,0,0,0,0.0000,0.0000,0.00,0.00,0.00,0.000,0.000,0.000,0.000,0.000,0.000,0.00,0.00,0.00,0.0,0.0,
266,1768209521802,54950,0.00,0.00,31.15,0.00,0.00,0.00,0.00,0.00,0,0,0,0,0.0000,0.0000,0.00,0.00,0.00,0.000,0.000,0.000,0.000,0.000,0.000,0.00,0.00,0.00,0.0,0.0,
267,1768209522002,55150,0.00,0.00,31.43,0.00,0.00,0.00,0.00,0.00,0,0,0,0,0.0000,0.0000,0.00,0.00,0.00,0.000,0.000,0.000,0.000,0.000,0.000,0.00,0.00,0.00,0.0,0.0,
268,1768209523202,55350,0.00,0.00,31.15,0.00,0.00,0.00,0.00,0.00,0,0,0,0,0.0000,0.0000,0.00,0.00,0.00,0.000,0.000,0.000,0.000,0.000,0.000,0.00,0.00,0.00,0.0,0.0,
269,1768209523402,55550,0.00,0.00,31.06,0.00,0.00,0.00,0.00,0.00,0,0,0,0,0.0000,0.0000,0.00,0.00,0.00,0.000,0.000,0.000,0.000,0.000,0.000,0.00,0.00,0.00,0.0,0.0,
270,1768209523602,55750,0.00,0.00,31.26,0.00,0.00,0.00,0.00,0.00,0,0,0,0,0.0000,0.0000,0.00,0.00,0.00,0.000,0.000,0.000,0.000,0.000,0.000,0.00,0.00,0.00,0.0,0.0,
271,1768209523802,55950,0.00,0.00,31.14,0.00,0.00,0.00,0.00,0.00,0,0,0,0,0.0000,0.0000,0.00,0.00,0.00,0.000,0.000,0.000,0.000,0.000,0.000,0.00,0.00,0.00,0.0,0.0,
271,1768209524002,56150,0.00,0.00,30.15,0.00,0.00,0.00,0.00,0.00,0,0,0,0,0.0000,0.0000,0.00,0.00,0.00,0.000,0.000,0.000,0.000,0.000,0.000,0.00,0.00,0.00,0.0,0.0,
273,1768209525202,56350,0.00,0.00,31.23,0.02,0.00,0.00,0.00,0.00,0,0,0,0,0.0000,0.0000,0.00,0.00,0.00,0.000,0.000,0.000,0.000,0.000,0.000,0.00,0.00,0.00,0.0,0.0,
274,1768209525402,56550,0.00,0.00,31.23,0.04,0.00,0.00,0.00,0.00,0,0,0,0,0.0000,0.0000,0.00,0.00,0.00,0.000,0.000,0.000,0.000,0.000,0.000,0.00,0.00,0.00,0.0,0.0,
275,1768209525602,56750,0.00,0.00,31.59,0.00,0.00,0.00,0.00,0.00,0,0,0,0,0.0000,0.0000,0.00,0.00,0.00,0.000,0.000,0.000,0.000,0.000,0.000,0.00,0.00,0.00,0.0,0.0,
276,1768209525802,56950,0.00,0.00,31.15,0.00,0.00,0.00,0.00,0.00,0,0,0,0,0.0000,0.0000,0.00,0.00,0.00,0.000,0.000,0.000,0.000,0.000,0.000,0.00,0.00,0.00,0.0,0.0,
277,1768209526002,57150,0.00,0.00,31.23,0.00,0.00,0.00,0.00,0.00,0,0,0,0,0.0000,0.0000,0.00,0.00,0.00,0.000,0.000,0.000,0.000,0.000,0.000,0.00,0.00,0.00,0.0,0.0,
278,1768209527202,57350,0.00,0.00,31.21,0.00,0.00,0.00,0.00,0.00,0,0,0,0,0.0000,0.0000,0.00,0.00,0.00,0.000,0.000,0.000,0.000,0.000,0.000,0.00,0.00,0.00,0.0,0.0,
279,1768209527402,57550,0.00,0.00,31.04,0.00,0.00,0.00,0.00,0.00,0,0,0,0,0.0000,0.0000,0.00,0.00,0.00,0.000,0.000,0.000,0.000,0.000,0.000,0.00,0.00,0.00,0.0,0.0,
280,1768209527602,57750,0.00,0.00,31.17,0.00,0.00,0.00,0.00,0.00,0,0,0,0,0.0000,0.0000,0.00,0.00,0.00,0.000,0.000,0.000,0.000,0.000,0.000,0.00,0.00,0.00,0.0,0.0,
281,1768209527802,57950,0.00,0.00,30.95,0.42,0.00,0.00,0.00,0.00,0,0,0,0,0.0000,0.0000,0.00,0.00,0.00,0.000,0.000,0.000,0.000,0.000,0.000,0.00,0.00,0.00,0.0,0.0,
282,1768209528002,58150,0.00,0.00,31.26,0.00,0.00,0.00,0.00,0.00,0,0,0,0,0.0000,0.0000,0.00,0.00,0.00,0.000,0.000,0.000,0.000,0.000,0.000,0.00,0.00,0.00,0.0,0.0,
283,1768209529202,58350,0.00,0.00,31.26,0.00,0.00,0.00,0.00,0.00,0,0,0,0,0.0000,0.0000,0.00,0.00,0.00,0.000,0.000,0.000,0.000,0.000,0.000,0.00,0.00,0.00,0.0,0.0,
284,1768209529402,58550,0.00,0.00,31.58,0.00,0.00,0.00,0.00,0.00,0,0,0,0,0.0000,0.0000,0.00,0.00,0.00,0.000,0.000,0.000,0.000,0.000,0.000,0.00,0.00,0.00,0.0,0.0,
285,1768209529602,58750,0.00,0.00,31.21,0.00,0.00,0.00,0.00,0.00,0,0,0,0,0.0000,0.0000,0.00,0.00,0.00,0.000,0.000,0.000,0.000,0.000,0.000,0.00,0.00,0.00,0.0,0.0,
286,1768209529802,58950,0.00,0.00,31.19,0.00,0.00,0.00,0.00,0.00,0,0,0,0,0.0000,0.0000,0.00,0.00,0.00,0.000,0.000,0.000,0.000,0.000,0.000,0.00,0.00,0.00,0.0,0.0,
287,1768209530002,59150,0.00,0.00,31.15,0.00,0.00,0.00,0.00,0.00,0,0,0,0,0.0000,0.0000,0.00,0.00,0.00,0.000,0.000,0.000,0.000,0.000,0.000,0.00,0.00,0.00,0.0,0.0,
288,1768209531202,59350,0.00,0.00,31.17,0.00,0.00,0.00,0.00,0.00,0,0,0,0,0.0000,0.0000,0.00,0.00,0.00,0.000,0.000,0.000,0.000,0.000,0.000,0.00,0.00,0.00,0.0,0.0,
289,1768209531402,59550,0.00,0.00,31.14,0.16,0.00,0.00,0.00,0.00,0,0,0,0,0.0000,0.0000,0.00,0.00,0.00,0.000,0.000,0.000,0.000,0.000,0.000,0.00,0.00,0.00,0.0,0.0,
290,1768209531602,59750,0.00,0.00,31.23,0.00,0.00,0.00,0.00,0.00,0,0,0,0,0.0000,0.0000,0.00,0.00,0.00,0.000,0.000,0.000,0.000,0.000,0.000,0.00,0.00,0.00,0.0,0.0,
291,1768209531802,59950,0.00,0.00,31.30,0.00,0.00,0.00,0.00,0.00,0,0,0,0,0.0000,0.0000,0.00,0.00,0.00,0.000,0.000,0.000,0.000,0.000,0.000,0.00,0.00,0.00,0.0,0.0,
292,1768209532002,60150,0.00,0.00,31.23,0.00,0.00,0.00,0.00,0.00,0,0,0,0,0.0000,0.0000,0.00,0.00,0.00,0.000,0.000,0.000,0.000,0.000,0.000,0.00,0.00,0.00,0.0,0.0,
293,1768209533202,60350,0.00,0.00,31.45,0.00,0.00,0.00,0.00,0.00,0,0,0,0,0.0000,0.0000,0.00,0.00,0.00,0.000,0.000,0.000,0.000,0.000,0.000,0.00,0.00,0.00,0.0,0.0,
294,1768209533402,60550,0.00,0.00,30.88,0.00,0.00,0.00,0.00,0.00,0,0,0,0,0.0000,0.0000,0.00,0.00,0.00,0.000,0.000,0.000,0.000,0.000,0.000,0.00,0.00,0.00,0.0,0.0,
295,1768209533602,60750,0.00,0.00,30.73,0.00,0.00,0.00,0.00,0.00,0,0,0,0,0.0000,0.0000,0.00,0.00,0.00,0.000,0.000,0.000,0.000,0.000,0.000,0.00,0.00,0.00,0.0,0.0,
296,1768209533802,60950,12.00,0.00,30.09,0.00,0.00,0.00,0.00,0.00,0,0,0,0,0.0000,0.0000,0.00,0.00,0.00,0.000,0.000,0.000,0.000,0.000,0.000,0.00,0.00,0.00,0.0,0.0,
297,1768209534002,61150,1560.00,0.00,31.06,0.00,0.00,0.00,0.00,0.00,0,0,0,0,0.0000,0.0000,0.00,0.00,0.00,0.000,0.000,0.000,0.000,0.000,0.000,0.00,0.00,0.00,0.0,0.0,
298,1768209535202,61350,1428.00,0.00,30.93,0.00,0.00,0.00,0.00,0.00,0,0,0,0,0.0000,0.0000,0.00,0.00,0.00,0.000,0.000,0.000,0.000,0.000,0.000,0.00,0.00,0.00,0.0,0.0,
299,1768209535402,61550,1356.00,0.00,30.82,0.00,0.00,0.00,0.00,0.00,0,0,0,0,0.0000,0.0000,0.00,0.00,0.00,0.000,0.000,0.000,0.000,0.000,0.000,0.00,0.00,0.00,0.0,0.0,
300,1768209535602,61750,1326.00,0.00,30.82,0.00,0.00,0.00,0.00,0.00,0,0,0,0,0.0000,0.0000,0.00,0.00,0.00,0.000,0.000,0.000,0.000,0.000,0.000,0.00,0.00,0.00,0.0,0.0,
301,1768209535802,61950,1344.00,0.00,31.06,0.00,0.00,0.00,0.00,0.00,0,0,0,0,0.0000,0.0000,0.00,0.00,0.00,0.000,0.000,0.000,0.000,0.000,0.000,0.00,0.00,0.00,0.0,0.0,
302,1768209536002,62150,1362.00,0.00,31.14,0.00,0.00,0.00,0.00,0.00,0,0,0,0,0.0000,0.0000,0.00,0.00,0.00,0.000,0.000,0.000,0.000,0.000,0.000,0.00,0.00,0.00,0.0,0.0,
303,1768209537202,62350,1350.00,0.00,30.57,0.53,0.00,0.00,0.00,0.00,0,0,0,0,0.0000,0.0000,0.00,0.00,0.00,0.000,0.000,0.000,0.000,0.000,0.000,0.00,0.00,0.00,0.0,0.0,
304,1768209537402,62550,1356.00,0.00,31.04,0.00,0.00,0.00,0.00,0.00,0,0,0,0,0.0000,0.0000,0.00,0.00,0.00,0.000,0.000,0.000,0.000,0.000,0.000,0.00,0.00,0.00,0.0,0.0,
305,1768209537602,62750,1482.00,0.00,30.90,0.00,0.00,0.00,0.00,0.00,0,0,0,0,0.0000,0.0000,0.00,0.00,0.00,0.000,0.000,0.000,0.000,0.000,0.000,0.00,0.00,0.00,0.0,0.0,
306,1768209537802,62950,1332.00,0.00,31.45,0.02,0.00,0.00,0.00,0.00,0,0,0,0,0.0000,0.0000,0.00,0.00,0.00,0.000,0.000,0.000,0.000,0.000,0.000,0.00,0.00,0.00,0.0,0.0,
307,1768209538002,63150,1332.00,0.00,30.79,0.20,0.00,0.00,0.00,0.00,0,0,0,0,0.0000,0.0000,0.00,0.00,0.00,0.000,0.000,0.000,0.000,0.000,0.000,0.00,0.00,0.00,0.0,0.0,
308,1768209539202,63350,1236.00,0.00,31.30,0.02,0.00,0.00,0.00,0.00,0,0,0,0,0.0000,0.0000,0.00,0.00,0.00,0.000,0.000,0.000,0.000,0.000,0.000,0.00,0.00,0.00,0.0,0.0,
309,1768209539402,63550,1356.00,0.00,31.34,0.00,0.00,0.00,0.00,0.00,0,0,0,0,0.0000,0.0000,0.00,0.00,0.00,0.000,0.000,0.000,0.000,0.000,0.000,0.00,0.00,0.00,0.0,0.0,
310,1768209539602,63750,1356.00,0.00,31.25,0.00,0.00,0.00,0.00,0.00,0,0,0,0,0.0000,0.0000,0.00,0.00,0.00,0.000,0.000,0.000,0.000,0.000,0.000,0.00,0.00,0.00,0.0,0.0,
311,1768209539802,63950,1302.00,0.00,30.82,0.00,0.00,0.00,0.00,0.00,0,0,0,0,0.0000,0.0000,0.00,0.00,0.00,0.000,0.000,0.000,0.000,0.000,0.000,0.00,0.00,0.00,0.0,0.0,
312,1768209540002,64150,1260.00,0.00,30.66,0.00,0.00,0.00,0.00,0.00,0,0,0,0,0.0000,0.0000,0.00,0.00,0.00,0.000,0.000,0.000,0.000,0.000,0.000,0.00,0.00,0.00,0.0,0.0,
313,1768209541202,64350,1524.00,0.00,31.41,0.00,0.00,0.00,0.00,0.00,0,0,0,0,0.0000,0.0000,0.00,0.00,0.00,0.000,0.000,0.000,0.000,0.000,0.000,0.00,0.00,0.00,0.0,0.0,
314,1768209541403,64551,1248.00,0.00,30.90,0.00,0.00,0.00,0.00,0.00,0,0,0,0,0.0000,0.0000,0.00,0.00,0.00,0.000,0.000,0.000,0.000,0.000,0.000,0.00,0.00,0.00,0.0,0.0,
315,1768209541603,64751,1356.00,0.00,30.13,0.68,0.00,0.00,0.00,0.00,0,0,0,0,0.0000,0.0000,0.00,0.00,0.00,0.000,0.000,0.000,0.000,0.000,0.000,0.00,0.00,0.00,0.0,0.0,
316,1768209541803,64951,1248.00,0.00,30.66,0.00,0.00,0.00,0.00,0.00,0,0,0,0,0.0000,0.0000,0.00,0.00,0.00,0.000,0.000,0.000,0.000,0.000,0.000,0.00,0.00,0.00,0.0,0.0,
317,1768209542003,65151,228.00,0.00,31.15,0.00,0.00,0.00,0.00,0.00,0,0,0,0,0.0000,0.0000,0.00,0.00,0.00,0.000,0.000,0.000,0.000,0.000,0.000,0.00,0.00,0.00,0.0,0.0,
318,1768209543203,65351,756.00,0.00,31.72,0.00,0.00,0.00,0.00,0.00,0,0,0,0,0.0000,0.0000,0.00,0.00,0.00,0.000,0.000,0.000,0.000,0.000,0.000,0.00,0.00,0.00,0.0,0.0,
319,1768209543403,65551,756.00,0.00,31.04,0.00,0.00,0.00,0.00,0.00,0,0,0,0,0.0000,0.0000,0.00,0.00,0.00,0.000,0.000,0.000,0.000,0.000,0.000,0.00,0.00,0.00,0.0,0.0,
320,1768209543603,65751,1020.00,0.00,30.93,0.00,0.00,0.00,0.00,0.00,0,0,0,0,0.0000,0.0000,0.00,0.00,0.00,0.000,0.000,0.000,0.000,0.000,0.000,0.00,0.00,0.00,0.0,0.0,
321,1768209543803,65951,1014.00,0.00,31.50,0.00,0.00,0.00,0.00,0.00,0,0,0,0,0.0000,0.0000,0.00,0.00,0.00,0.000,0.000,0.000,0.000,0.000,0.000,0.00,0.00,0.00,0.0,0.0,
322,1768209544003,66151,0.00,0.00,31.03,0.22,0.00,0.00,0.00,0.00,0,0,0,0,0.0000,0.0000,0.00,0.00,0.00,0.000,0.000,0.000,0.000,0.000,0.000,0.00,0.00,0.00,0.0,0.0,
323,1768209545203,66351,0.00,0.00,31.30,0.00,0.00,0.00,0.00,0.00,0,0,0,0,0.0000,0.0000,0.00,0.00,0.00,0.000,0.000,0.000,0.000,0.000,0.000,0.00,0.00,0.00,0.0,0.0,
324,1768209545403,66551,0.00,0.00,31.15,0.00,0.00,0.00,0.00,0.00,0,0,0,0,0.0000,0.0000,0.00,0.00,0.00,0.000,0.000,0.000,0.000,0.000,0.000,0.00,0.00,0.00,0.0,0.0,
325,1768209545603,66751,0.00,0.00,31.32,0.00,0.00,0.00,0.00,0.00,0,0,0,0,0.0000,0.0000,0.00,0.00,0.00,0.000,0.000,0.000,0.000,0.000,0.000,0.00,0.00,0.00,0.0,0.0,
326,1768209545803,66951,0.00,0.00,30.95,0.00,0.00,0.00,0.00,0.00,0,0,0,0,0.0000,0.0000,0.00,0.00,0.00,0.000,0.000,0.000,0.000,0.000,0.000,0.00,0.00,0.00,0.0,0.0,
327,1768209546003,67151,0.00,0.00,31.63,0.00,0.00,0.00,0.00,0.00,0,0,0,0,0.0000,0.0000,0.00,0.00,0.00,0.000,0.000,0.000,0.000,0.000,0.000,0.00,0.00,0.00,0.0,0.0,
328,1768209547203,67351,0.00,0.00,31.14,0.42,0.00,0.00,0.00,0.00,0,0,0,0,0.0000,0.0000,0.00,0.00,0.00,0.000,0.000,0.000,0.000,0.000,0.000,0.00,0.00,0.00,0.0,0.0,
329,1768209547403,67551,12.00,0.00,31.19,0.02,0.00,0.00,0.00,0.00,0,0,0,0,0.0000,0.0000,0.00,0.00,0.00,0.000,0.000,0.000,0.000,0.000,0.000,0.00,0.00,0.00,0.0,0.0,
330,1768209547603,67751,0.00,0.00,31.36,0.00,0.00,0.00,0.00,0.00,0,0,0,0,0.0000,0.0000,0.00,0.00,0.00,0.000,0.000,0.000,0.000,0.000,0.000,0.00,0.00,0.00,0.0,0.0,
331,1768209547803,67951,0.00,0.00,31.59,0.00,0.00,0.00,0.00,0.00,0,0,0,0,0.0000,0.0000,0.00,0.00,0.00,0.000,0.000,0.000,0.000,0.000,0.000,0.00,0.00,0.00,0.0,0.0,
332,1768209548003,68151,12.00,0.00,31.17,0.00,0.00,0.00,0.00,0.00,0,0,0,0,0.0000,0.0000,0.00,0.00,0.00,0.000,0.000,0.000,0.000,0.000,0.000,0.00,0.00,0.00,0.0,0.0,
333,1768209549203,68351,0.00,0.00,31.30,0.00,0.00,0.00,0.00,0.00,0,0,0,0,0.0000,0.0000,0.00,0.00,0.00,0.000,0.000,0.000,0.000,0.000,0.000,0.00,0.00,0.00,0.0,0.0,
334,1768209549403,68551,0.00,0.00,31.34,0.00,0.00,0.00,0.00,0.00,0,0,0,0,0.0000,0.0000,0.00,0.00,0.00,0.000,0.000,0.000,0.000,0.000,0.000,0.00,0.00,0.00,0.0,0.0,
335,1768209549603,68751,0.00,0.00,31.56,0.00,0.00,0.00,0.00,0.00,0,0,0,0,0.0000,0.0000,0.00,0.00,0.00,0.000,0.000,0.000,0.000,0.000,0.000,0.00,0.00,0.00,0.0,0.0,
336,1768209549803,68951,0.00,0.00,31.26,0.00,0.00,0.00,0.00,0.00,0,0,0,0,0.0000,0.0000,0.00,0.00,0.00,0.000,0.000,0.000,0.000,0.000,0.000,0.00,0.00,0.00,0.0,0.0,
337,1768209550003,69151,0.00,0.00,31.26,0.18,0.00,0.00,0.00,0.00,0,0,0,0,0.0000,0.0000,0.00,0.00,0.00,0.000,0.000,0.000,0.000,0.000,0.000,0.00,0.00,0.00,0.0,0.0,
338,1768209551203,69351,0.00,0.00,31.26,0.07,0.00,0.00,0.00,0.00,0,0,0,0,0.0000,0.0000,0.00,0.00,0.00,0.000,0.000,0.000,0.000,0.000,0.000,0.00,0.00,0.00,0.0,0.0,
339,1768209551403,69551,0.00,0.00,31.48,0.00,0.00,0.00,0.00,0.00,0,0,0,0,0.0000,0.0000,0.00,0.00,0.00,0.000,0.000,0.000,0.000,0.000,0.000,0.00,0.00,0.00,0.0,0.0,
340,1768209551603,69751,0.00,0.00,31.19,0.00,0.00,0.00,0.00,0.00,0,0,0,0,0.0000,0.0000,0.00,0.00,0.00,0.000,0.000,0.000,0.000,0.000,0.000,0.00,0.00,0.00,0.0,0.0,
341,1768209551803,69951,0.00,0.00,31.74,0.00,0.00,0.00,0.00,0.00,0,0,0,0,0.0000,0.0000,0.00,0.00,0.00,0.000,0.000,0.000,0.000,0.000,0.000,0.00,0.00,0.00,0.0,0.0,
342,1768209552003,70151,0.00,0.00,31.19,0.00,0.00,0.00,0.00,0.00,0,0,0,0,0.0000,0.0000,0.00,0.00,0.00,0.000,0.000,0.000,0.000,0.000,0.000,0.00,0.00,0.00,0.0,0.0,
343,1768209553203,70351,0.00,0.00,30.99,0.00,0.00,0.00,0.00,0.00,0,0,0,0,0.0000,0.0000,0.00,0.00,0.00,0.000,0.000,0.000,0.000,0.000,0.000,0.00,0.00,0.00,0.0,0.0,
344,1768209553403,70551,0.00,0.00,31.19,0.00,0.00,0.00,0.00,0.00,0,0,0,0,0.0000,0.0000,0.00,0.00,0.00,0.000,0.000,0.000,0.000,0.000,0.000,0.00,0.00,0.00,0.0,0.0,
345,1768209553603,70751,0.00,0.00,31.04,0.11,0.00,0.00,0.00,0.00,0,0,0,0,0.0000,0.0000,0.00,0.00,0.00,0.000,0.000,0.000,0.000,0.000,0.000,0.00,0.00,0.00,0.0,0.0,
346,1768209553803,70951,0.00,0.00,31.25,0.00,0.00,0.00,0.00,0.00,0,0,0,0,0.0000,0.0000,0.00,0.00,0.00,0.000,0.000,0.000,0.000,0.000,0.000,0.00,0.00,0.00,0.0,0.0,
347,1768209554003,71151,0.00,0.00,31.30,0.00,0.00,0.00,0.00,0.00,0,0,0,0,0.0000,0.0000,0.00,0.00,0.00,0.000,0.000,0.000,0.000,0.000,0.000,0.00,0.00,0.00,0.0,0.0,
348,1768209555203,71351,0.00,0.00,31.28,0.00,0.00,0.00,0.00,0.00,0,0,0,0,0.0000,0.0000,0.00,0.00,0.00,0.000,0.000,0.000,0.000,0.000,0.000,0.00,0.00,0.00,0.0,0.0,
349,1768209555403,71551,0.00,0.00,31.21,0.00,0.00,0.00,0.00,0.00,0,0,0,0,0.0000,0.0000,0.00,0.00,0.00,0.000,0.000,0.000,0.000,0.000,0.000,0.00,0.00,0.00,0.0,0.0,
350,1768209555603,71751,0.00,0.00,31.15,0.00,0.00,0.00,0.00,0.00,0,0,0,0,0.0000,0.0000,0.00,0.00,0.00,0.000,0.000,0.000,0.000,0.000,0.000,0.00,0.00,0.00,0.0,0.0,
351,1768209555803,71951,0.00,0.00,31.01,0.00,0.00,0.00,0.00,0.00,0,0,0,0,0.0000,0.0000,0.00,0.00,0.00,0.000,0.000,0.000,0.000,0.000,0.000,0.00,0.00,0.00,0.0,0.0,
352,1768209556003,72151,0.00,0.00,31.59,0.00,0.00,0.00,0.00,0.00,0,0,0,0,0.0000,0.0000,0.00,0.00,0.00,0.000,0.000,0.000,0.000,0.000,0.000,0.00,0.00,0.00,0.0,0.0,
353,1768209557203,72351,0.00,0.00,31.63,0.00,0.00,0.00,0.00,0.00,0,0,0,0,0.0000,0.0000,0.00,0.00,0.00,0.000,0.000,0.000,0.000,0.000,0.000,0.00,0.00,0.00,0.0,0.0,
354,1768209557403,72551,0.00,0.00,31.01,0.00,0.00,0.00,0.00,0.00,0,0,0,0,0.0000,0.0000,0.00,0.00,0.00,0.000,0.000,0.000,0.000,0.000,0.000,0.00,0.00,0.00,0.0,0.0,
355,1768209557603,72751,0.00,0.00,31.63,0.00,0.00,0.00,0.00,0.00,0,0,0,0,0.0000,0.0000,0.00,0.00,0.00,0.000,0.000,0.000,0.000,0.000,0.000,0.00,0.00,0.00,0.0,0.0,
356,1768209557803,72951,0.00,0.00,30.92,0.13,0.00,0.00,0.00,0.00,0,0,0,0,0.0000,0.0000,0.00,0.00,0.00,0.000,0.000,0.000,0.000,0.000,0.000,0.00,0.00,0.00,0.0,0.0,
357,1768209558003,73151,0.00,0.00,31.04,0.00,0.00,0.00,0.00,0.00,0,0,0,0,0.0000,0.0000,0.00,0.00,0.00,0.000,0.000,0.000,0.000,0.000,0.000,0.00,0.00,0.00,0.0,0.0,
358,1768209559203,73351,0.00,0.00,30.57,0.00,0.00,0.00,0.00,0.00,0,0,0,0,0.0000,0.0000,0.00,0.00,0.00,0.000,0.000,0.000,0.000,0.000,0.000,0.00,0.00,0.00,0.0,0.0,
359,1768209559403,73551,0.00,0.00,31.19,0.00,0.00,0.00,0.00,0.00,0,0,0,0,0.0000,0.0000,0.00,0.00,0.00,0.000,0.000,0.000,0.000,0.000,0.000,0.00,0.00,0.00,0.0,0.0,
360,1768209559603,73751,0.00,0.00,31.17,0.15,0.00,0.00,0.00,0.00,0,0,0,0,0.0000,0.0000,0.00,0.00,0.00,0.000,0.000,0.000,0.000,0.000,0.000,0.00,0.00,0.00,0.0,0.0,
361,1768209559803,73951,0.00,0.00,31.04,0.15,0.00,0.00,0.00,0.00,0,0,0,0,0.0000,0.0000,0.00,0.00,0.00,0.000,0.000,0.000,0.000,0.000,0.000,0.00,0.00,0.00,0.0,0.0,
362,1768209560003,74151,0.00,0.00,31.23,0.00,0.00,0.00,0.00,0.00,0,0,0,0,0.0000,0.0000,0.00,0.00,0.00,0.000,0.000,0.000,0.000,0.000,0.000,0.00,0.00,0.00,0.0,0.0,
363,1768209561203,74351,0.00,0.00,31.28,0.00,0.00,0.00,0.00,0.00,0,0,0,0,0.0000,0.0000,0.00,0.00,0.00,0.000,0.000,0.000,0.000,0.000,0.000,0.00,0.00,0.00,0.0,0.0,
364,1768209561403,74551,0.00,0.00,31.01,0.00,0.00,0.00,0.00,0.00,0,0,0,0,0.0000,0.0000,0.00,0.00,0.00,0.000,0.000,0.000,0.000,0.000,0.000,0.00,0.00,0.00,0.0,0.0,
365,1768209561603,74751,0.00,0.00,31.17,0.00,0.00,0.00,0.00,0.00,0,0,0,0,0.0000,0.0000,0.00,0.00,0.00,0.000,0.000,0.000,0.000,0.000,0.000,0.00,0.00,0.00,0.0,0.0,
366,1768209561803,74951,0.00,0.00,31.52,0.00,0.00,0.00,0.00,0.00,0,0,0,0,0.0000,0.0000,0.00,0.00,0.00,0.000,0.000,0.000,0.000,0.000,0.000,0.00,0.00,0.00,0.0,0.0,
367,1768209562003,75151,0.00,0.00,31.30,0.00,0.00,0.00,0.00,0.00,0,0,0,0,0.0000,0.0000,0.00,0.00,0.00,0.000,0.000,0.000,0.000,0.000,0.000,0.00,0.00,0.00,0.0,0.0,
368,1768209563203,75351,0.00,0.00,31.15,0.00,0.00,0.00,0.00,0.00,0,0,0,0,0.0000,0.0000,0.00,0.00,0.00,0.000,0.000,0.000,0.000,0.000,0.000,0.00,0.00,0.00,0.0,0.0,
369,1768209563403,75551,0.00,0.00,31.15,0.00,0.00,0.00,0.00,0.00,0,0,0,0,0.0000,0.0000,0.00,0.00,0.00,0.000,0.000,0.000,0.000,0.000,0.000,0.00,0.00,0.00,0.0,0.0,
370,1768209563603,75751,0.00,0.00,30.97,0.00,0.00,0.00,0.00,0.00,0,0,0,0,0.0000,0.0000,0.00,0.00,0.00,0.000,0.000,0.000,0.000,0.000,0.000,0.00,0.00,0.00,0.0,0.0,
371,1768209563803,75951,12.00,0.00,31.04,0.20,0.00,0.00,0.00,0.00,0,0,0,0,0.0000,0.0000,0.00,0.00,0.00,0.000,0.000,0.000,0.000,0.000,0.000,0.00,0.00,0.00,0.0,0.0,
372,1768209564003,76151,0.00,0.00,31.45,0.00,0.00,0.00,0.00,0.00,0,0,0,0,0.0000,0.0000,0.00,0.00,0.00,0.000,0.000,0.000,0.000,0.000,0.000,0.00,0.00,0.00,0.0,0.0,
373,1768209565203,76351,0.00,0.00,31.23,0.00,0.00,0.00,0.00,0.00,0,0,0,0,0.0000,0.0000,0.00,0.00,0.00,0.000,0.000,0.000,0.000,0.000,0.000,0.00,0.00,0.00,0.0,0.0,
374,1768209565403,76551,0.00,0.00,31.12,0.00,0.00,0.00,0.00,0.00,0,0,0,0,0.0000,0.0000,0.00,0.00,0.00,0.000,0.000,0.000,0.000,0.000,0.000,0.00,0.00,0.00,0.0,0.0,
375,1768209565603,76751,0.00,0.00,31.26,0.11,0.00,0.00,0.00,0.00,0,0,0,0,0.0000,0.0000,0.00,0.00,0.00,0.000,0.000,0.000,0.000,0.000,0.000,0.00,0.00,0.00,0.0,0.0,
376,1768209565803,76951,0.00,0.00,31.03,0.00,0.00,0.00,0.00,0.00,0,0,0,0,0.0000,0.0000,0.00,0.00,0.00,0.000,0.000,0.000,0.000,0.000,0.000,0.00,0.00,0.00,0.0,0.0,
377,1768209566003,77151,0.00,0.00,31.15,0.13,0.00,0.00,0.00,0.00,0,0,0,0,0.0000,0.0000,0.00,0.00,0.00,0.000,0.000,0.000,0.000,0.000,0.000,0.00,0.00,0.00,0.0,0.0,
378,1768209567203,77351,0.00,0.00,31.12,0.00,0.00,0.00,0.00,0.00,0,0,0,0,0.0000,0.0000,0.00,0.00,0.00,0.000,0.000,0.000,0.000,0.000,0.000,0.00,0.00,0.00,0.0,0.0,
379,1768209567403,77551,0.00,0.00,31.26,0.02,0.00,0.00,0.00,0.00,0,0,0,0,0.0000,0.0000,0.00,0.00,0.00,0.000,0.000,0.000,0.000,0.000,0.000,0.00,0.00,0.00,0.0,0.0,
380,1768209567603,77751,0.00,0.00,30.97,0.00,0.00,0.00,0.00,0.00,0,0,0,0,0.0000,0.0000,0.00,0.00,0.00,0.000,0.000,0.000,0.000,0.000,0.000,0.00,0.00,0.00,0.0,0.0,
381,1768209567803,77951,0.00,0.00,30.90,0.11,0.00,0.00,0.00,0.00,0,0,0,0,0.0000,0.0000,0.00,0.00,0.00,0.000,0.000,0.000,0.000,0.000,0.000,0.00,0.00,0.00,0.0,0.0,
382,1768209568003,78151,0.00,0.00,31.06,0.00,0.00,0.00,0.00,0.00,0,0,0,0,0.0000,0.0000,0.00,0.00,0.00,0.000,0.000,0.000,0.000,0.000,0.000,0.00,0.00,0.00,0.0,0.0,
383,1768209569203,78351,0.00,0.00,31.15,0.00,0.00,0.00,0.00,0.00,0,0,0,0,0.0000,0.0000,0.00,0.00,0.00,0.000,0.000,0.000,0.000,0.000,0.000,0.00,0.00,0.00,0.0,0.0,
384,1768209569403,78551,0.00,0.00,31.30,0.00,0.00,0.00,0.00,0.00,0,0,0,0,0.0000,0.0000,0.00,0.00,0.00,0.000,0.000,0.000,0.000,0.000,0.000,0.00,0.00,0.00,0.0,0.0,
385,1768209569603,78751,0.00,0.00,31.28,0.00,0.00,0.00,0.00,0.00,0,0,0,0,0.0000,0.0000,0.00,0.00,0.00,0.000,0.000,0.000,0.000,0.000,0.000,0.00,0.00,0.00,0.0,0.0,
386,1768209569803,78951,0.00,0.00,31.23,0.00,0.00,0.00,0.00,0.00,0,0,0,0,0.0000,0.0000,0.00,0.00,0.00,0.000,0.000,0.000,0.000,0.000,0.000,0.00,0.00,0.00,0.0,0.0,
387,1768209570003,79151,0.00,0.00,31.63,0.00,0.00,0.00,0.00,0.00,0,0,0,0,0.0000,0.0000,0.00,0.00,0.00,0.000,0.000,0.000,0.000,0.000,0.000,0.00,0.00,0.00,0.0,0.0,
388,1768209571203,79351,0.00,0.00,30.93,0.00,0.00,0.00,0.00,0.00,0,0,0,0,0.0000,0.0000,0.00,0.00,0.00,0.000,0.000,0.000,0.000,0.000,0.000,0.00,0.00,0.00,0.0,0.0,
389,1768209571403,79551,0.00,0.00,31.45,0.00,0.00,0.00,0.00,0.00,0,0,0,0,0.0000,0.0000,0.00,0.00,0.00,0.000,0.000,0.000,0.000,0.000,0.000,0.00,0.00,0.00,0.0,0.0,
390,1768209571603,79751,0.00,0.00,31.48,0.00,0.00,0.00,0.00,0.00,0,0,0,0,0.0000,0.0000,0.00,0.00,0.00,0.000,0.000,0.000,0.000,0.000,0.000,0.00,0.00,0.00,0.0,0.0,
391,1768209571803,79951,0.00,0.00,31.32,0.00,0.00,0.00,0.00,0.00,0,0,0,0,0.0000,0.0000,0.00,0.00,0.00,0.000,0.000,0.000,0.000,0.000,0.000,0.00,0.00,0.00,0.0,0.0,
392,1768209572003,80151,0.00,0.00,31.26,0.00,0.00,0.00,0.00,0.00,0,0,0,0,0.0000,0.0000,0.00,0.00,0.00,0.000,0.000,0.000,0.000,0.000,0.000,0.00,0.00,0.00,0.0,0.0,
393,1768209573203,80351,0.00,0.00,31.06,0.00,0.00,0.00,0.00,0.00,0,0,0,0,0.0000,0.0000,0.00,0.00,0.00,0.000,0.000,0.000,0.000,0.000,0.000,0.00,0.00,0.00,0.0,0.0,
394,1768209573403,80551,0.00,0.00,31.23,0.00,0.00,0.00,0.00,0.00,0,0,0,0,0.0000,0.0000,0.00,0.00,0.00,0.000,0.000,0.000,0.000,0.000,0.000,0.00,0.00,0.00,0.0,0.0,
395,1768209573603,80751,0.00,0.00,31.15,0.00,0.00,0.00,0.00,0.00,0,0,0,0,0.0000,0.0000,0.00,0.00,0.00,0.000,0.000,0.000,0.000,0.000,0.000,0.00,0.00,0.00,0.0,0.0,
396,1768209573803,80951,0.00,0.00,31.25,0.00,0.00,0.00,0.00,0.00,0,0,0,0,0.0000,0.0000,0.00,0.00,0.00,0.000,0.000,0.000,0.000,0.000,0.000,0.00,0.00,0.00,0.0,0.0,
397,1768209574003,81151,0.00,0.00,31.41,0.00,0.00,0.00,0.00,0.00,0,0,0,0,0.0000,0.0000,0.00,0.00,0.00,0.000,0.000,0.000,0.000,0.000,0.000,0.00,0.00,0.00,0.0,0.0,
398,1768209575203,81351,0.00,0.00,31.04,0.00,0.00,0.00,0.00,0.00,0,0,0,0,0.0000,0.0000,0.00,0.00,0.00,0.000,0.000,0.000,0.000,0.000,0.000,0.00,0.00,0.00,0.0,0.0,
399,1768209575403,81551,0.00,0.00,31.43,0.00,0.00,0.00,0.00,0.00,0,0,0,0,0.0000,0.0000,0.00,0.00,0.00,0.000,0.000,0.000,0.000,0.000,0.000,0.00,0.00,0.00,0.0,0.0,
400,1768209575603,81751,0.00,0.00,30.68,0.20,0.00,0.00,0.00,0.00,0,0,0,0,0.0000,0.0000,0.00,0.00,0.00,0.000,0.000,0.000,0.000,0.000,0.000,0.00,0.00,0.00,0.0,0.0,
401,1768209575803,81951,0.00,0.00,30.57,0.16,0.00,0.00,0.00,0.00,0,0,0,0,0.0000,0.0000,0.00,0.00,0.00,0.000,0.000,0.000,0.000,0.000,0.000,0.00,0.00,0.00,0.0,0.0,
402,1768209576003,82151,0.00,0.00,31.04,0.00,0.00,0.00,0.00,0.00,0,0,0,0,0.0000,0.0000,0.00,0.00,0.00,0.000,0.000,0.000,0.000,0.000,0.000,0.00,0.00,0.00,0.0,0.0,
403,1768209577203,82351,0.00,0.00,31.15,0.00,0.00,0.00,0.00,0.00,0,0,0,0,0.0000,0.0000,0.00,0.00,0.00,0.000,0.000,0.000,0.000,0.000,0.000,0.00,0.00,0.00,0.0,0.0,
404,1768209577403,82551,0.00,0.00,31.56,0.00,0.00,0.00,0.00,0.00,0,0,0,0,0.0000,0.0000,0.00,0.00,0.00,0.000,0.000,0.000,0.000,0.000,0.000,0.00,0.00,0.00,0.0,0.0,
405,1768209577603,82751,0.00,0.00,31.19,0.00,0.00,0.00,0.00,0.00,0,0,0,0,0.0000,0.0000,0.00,0.00,0.00,0.000,0.000,0.000,0.000,0.000,0.000,0.00,0.00,0.00,0.0,0.0,
406,1768209577803,82951,0.00,0.00,31.23,0.09,0.00,0.00,0.00,0.00,0,0,0,0,0.0000,0.0000,0.00,0.00,0.00,0.000,0.000,0.000,0.000,0.000,0.000,0.00,0.00,0.00,0.0,0.0,
407,1768209578003,83151,0.00,0.00,31.52,0.00,0.00,0.00,0.00,0.00,0,0,0,0,0.0000,0.0000,0.00,0.00,0.00,0.000,0.000,0.000,0.000,0.000,0.000,0.00,0.00,0.00,0.0,0.0,
408,1768209579203,83351,0.00,0.00,31.19,0.00,0.00,0.00,0.00,0.00,0,0,0,0,0.0000,0.0000,0.00,0.00,0.00,0.000,0.000,0.000,0.000,0.000,0.000,0.00,0.00,0.00,0.0,0.0,
409,1768209579403,83551,0.00,0.00,31.04,0.00,0.00,0.00,0.00,0.00,0,0,0,0,0.0000,0.0000,0.00,0.00,0.00,0.000,0.000,0.000,0.000,0.000,0.000,0.00,0.00,0.00,0.0,0.0,
410,1768209579603,83751,12.00,0.00,31.12,0.09,0.00,0.00,0.00,0.00,0,0,0,0,0.0000,0.0000,0.00,0.00,0.00,0.000,0.000,0.000,0.000,0.000,0.000,0.00,0.00,0.00,0.0,0.0,
411,1768209579803,83951,0.00,0.00,30.99,0.42,0.00,0.00,0.00,0.00,0,0,0,0,0.0000,0.0000,0.00,0.00,0.00,0.000,0.000,0.000,0.000,0.000,0.000,0.00,0.00,0.00,0.0,0.0,
412,1768209580003,84151,0.00,0.00,30.99,0.00,0.00,0.00,0.00,0.00,0,0,0,0,0.0000,0.0000,0.00,0.00,0.00,0.000,0.000,0.000,0.000,0.000,0.000,0.00,0.00,0.00,0.0,0.0,
413,1768209581203,84351,12.00,0.00,31.04,0.20,0.00,0.00,0.00,0.00,0,0,0,0,0.0000,0.0000,0.00,0.00,0.00,0.000,0.000,0.000,0.000,0.000,0.000,0.00,0.00,0.00,0.0,0.0,
414,1768209581403,84551,0.00,0.00,31.34,0.00,0.00,0.00,0.00,0.00,0,0,0,0,0.0000,0.0000,0.00,0.00,0.00,0.000,0.000,0.000,0.000,0.000,0.000,0.00,0.00,0.00,0.0,0.0,
415,1768209581603,84751,0.00,0.00,31.30,0.00,0.00,0.00,0.00,0.00,0,0,0,0,0.0000,0.0000,0.00,0.00,0.00,0.000,0.000,0.000,0.000,0.000,0.000,0.00,0.00,0.00,0.0,0.0,
416,1768209581803,84951,0.00,0.00,31.04,0.00,0.00,0.00,0.00,0.00,0,0,0,0,0.0000,0.0000,0.00,0.00,0.00,0.000,0.000,0.000,0.000,0.000,0.000,0.00,0.00,0.00,0.0,0.0,
417,1768209582003,85151,0.00,0.00,31.30,0.00,0.00,0.00,0.00,0.00,0,0,0,0,0.0000,0.0000,0.00,0.00,0.00,0.000,0.000,0.000,0.000,0.000,0.000,0.00,0.00,0.00,0.0,0.0,
418,1768209583203,85351,0.00,0.00,31.41,0.00,0.00,0.00,0.00,0.00,0,0,0,0,0.0000,0.0000,0.00,0.00,0.00,0.000,0.000,0.000,0.000,0.000,0.000,0.00,0.00,0.00,0.0,0.0,
419,1768209583403,85551,0.00,0.00,31.01,0.05,0.00,0.00,0.00,0.00,0,0,0,0,0.0000,0.0000,0.00,0.00,0.00,0.000,0.000,0.000,0.000,0.000,0.000,0.00,0.00,0.00,0.0,0.0,
420,1768209583603,85751,0.00,0.00,30.99,0.05,0.00,0.00,0.00,0.00,0,0,0,0,0.0000,0.0000,0.00,0.00,0.00,0.000,0.000,0.000,0.000,0.000,0.000,0.00,0.00,0.00,0.0,0.0,
421,1768209583803,85951,0.00,0.00,31.30,0.02,0.00,0.00,0.00,0.00,0,0,0,0,0.0000,0.0000,0.00,0.00,0.00,0.000,0.000,0.000,0.000,0.000,0.000,0.00,0.00,0.00,0.0,0.0,
422,1768209584003,86151,0.00,0.00,31.30,0.02,0.00,0.00,0.00,0.00,0,0,0,0,0.0000,0.0000,0.00,0.00,0.00,0.000,0.000,0.000,0.000,0.000,0.000,0.00,0.00,0.00,0.0,0.0,
423,1768209585203,86351,0.00,0.00,31.30,0.00,0.00,0.00,0.00,0.00,0,0,0,0,0.0000,0.0000,0.00,0.00,0.00,0.000,0.000,0.000,0.000,0.000,0.000,0.00,0.00,0.00,0.0,0.0,
424,1768209585403,86551,0.00,0.00,31.23,0.11,0.00,0.00,0.00,0.00,0,0,0,0,0.0000,0.0000,0.00,0.00,0.00,0.000,0.000,0.000,0.000,0.000,0.000,0.00,0.00,0.00,0.0,0.0,
425,1768209585603,86751,0.00,0.00,31.04,0.00,0.00,0.00,0.00,0.00,0,0,0,0,0.0000,0.0000,0.00,0.00,0.00,0.000,0.000,0.000,0.000,0.000,0.000,0.00,0.00,0.00,0.0,0.0,
426,1768209585803,86951,0.00,0.00,31.14,0.00,0.00,0.00,0.00,0.00,0,0,0,0,0.0000,0.0000,0.00,0.00,0.00,0.000,0.000,0.000,0.000,0.000,0.000,0.00,0.00,0.00,0.0,0.0,
427,1768209586003,87151,12.00,0.00,31.34,0.00,0.00,0.00,0.00,0.00,0,0,0,0,0.0000,0.0000,0.00,0.00,0.00,0.000,0.000,0.000,0.000,0.000,0.000,0.00,0.00,0.00,0.0,0.0,
428,1768209587203,87351,0.00,0.00,30.97,0.00,0.00,0.00,0.00,0.00,0,0,0,0,0.0000,0.0000,0.00,0.00,0.00,0.000,0.000,0.000,0.000,0.000,0.000,0.00,0.00,0.00,0.0,0.0,
429,1768209587403,87551,0.00,0.00,31.41,0.00,0.00,0.00,0.00,0.00,0,0,0,0,0.0000,0.0000,0.00,0.00,0.00,0.000,0.000,0.000,0.000,0.000,0.000,0.00,0.00,0.00,0.0,0.0,
430,1768209587603,87751,12.00,0.00,31.19,0.00,0.00,0.00,0.00,0.00,0,0,0,0,0.0000,0.0000,0.00,0.00,0.00,0.000,0.000,0.000,0.000,0.000,0.000,0.00,0.00,0.00,0.0,0.0,
431,1768209587803,87951,0.00,0.00,31.47,0.00,0.00,0.00,0.00,0.00,0,0,0,0,0.0000,0.0000,0.00,0.00,0.00,0.000,0.000,0.000,0.000,0.000,0.000,0.00,0.00,0.00,0.0,0.0,
432,1768209588003,88151,0.00,0.00,31.52,0.00,0.00,0.00,0.00,0.00,0,0,0,0,0.0000,0.0000,0.00,0.00,0.00,0.000,0.000,0.000,0.000,0.000,0.000,0.00,0.00,0.00,0.0,0.0,
433,1768209589203,88351,0.00,0.00,31.30,0.00,0.00,0.00,0.00,0.00,0,0,0,0,0.0000,0.0000,0.00,0.00,0.00,0.000,0.000,0.000,0.000,0.000,0.000,0.00,0.00,0.00,0.0,0.0,
434,1768209589403,88551,0.00,0.00,30.84,0.00,0.00,0.00,0.00,0.00,0,0,0,0,0.0000,0.0000,0.00,0.00,0.00,0.000,0.000,0.000,0.000,0.000,0.000,0.00,0.00,0.00,0.0,0.0,
435,1768209589603,88751,0.00,0.00,31.21,0.02,0.00,0.00,0.00,0.00,0,0,0,0,0.0000,0.0000,0.00,0.00,0.00,0.000,0.000,0.000,0.000,0.000,0.000,0.00,0.00,0.00,0.0,0.0,
436,1768209589803,88951,0.00,0.00,31.45,0.00,0.00,0.00,0.00,0.00,0,0,0,0,0.0000,0.0000,0.00,0.00,0.00,0.000,0.000,0.000,0.000,0.000,0.000,0.00,0.00,0.00,0.0,0.0,
437,1768209590003,89151,0.00,0.00,30.38,0.57,0.00,0.00,0.00,0.00,0,0,0,0,0.0000,0.0000,0.00,0.00,0.00,0.000,0.000,0.000,0.000,0.000,0.000,0.00,0.00,0.00,0.0,0.0,
438,1768209591203,89351,726.00,0.00,31.15,0.00,0.00,0.00,0.00,0.00,0,0,0,0,0.0000,0.0000,0.00,0.00,0.00,0.000,0.000,0.000,0.000,0.000,0.000,0.00,0.00,0.00,0.0,0.0,
439,1768209591403,89551,0.00,0.00,31.19,0.00,0.00,0.00,0.00,0.00,0,0,0,0,0.0000,0.0000,0.00,0.00,0.00,0.000,0.000,0.000,0.000,0.000,0.000,0.00,0.00,0.00,0.0,0.0,
440,1768209591603,89751,0.00,0.00,30.97,0.00,0.00,0.00,0.00,0.00,0,0,0,0,0.0000,0.0000,0.00,0.00,0.00,0.000,0.000,0.000,0.000,0.000,0.000,0.00,0.00,0.00,0.0,0.0,
441,1768209591803,89951,0.00,0.00,31.04,0.00,0.00,0.00,0.00,0.00,0,0,0,0,0.0000,0.0000,0.00,0.00,0.00,0.000,0.000,0.000,0.000,0.000,0.000,0.00,0.00,0.00,0.0,0.0,
442,1768209592003,90151,0.00,0.00,31.23,0.00,0.00,0.00,0.00,0.00,0,0,0,0,0.0000,0.0000,0.00,0.00,0.00,0.000,0.000,0.000,0.000,0.000,0.000,0.00,0.00,0.00,0.0,0.0,
443,1768209593203,90351,0.00,0.00,30.31,0.49,0.00,0.00,0.00,0.00,0,0,0,0,0.0000,0.0000,0.00,0.00,0.00,0.000,0.000,0.000,0.000,0.000,0.000,0.00,0.00,0.00,0.0,0.0,
444,1768209593403,90551,0.00,0.00,31.36,0.09,0.00,0.00,0.00,0.00,0,0,0,0,0.0000,0.0000,0.00,0.00,0.00,0.000,0.000,0.000,0.000,0.000,0.000,0.00,0.00,0.00,0.0,0.0,
445,1768209593603,90751,0.00,0.00,31.48,0.07,0.00,0.00,0.00,0.00,0,0,0,0,0.0000,0.0000,0.00,0.00,0.00,0.000,0.000,0.000,0.000,0.000,0.000,0.00,0.00,0.00,0.0,0.0,
446,1768209593803,90951,0.00,0.00,31.04,0.00,0.00,0.00,0.00,0.00,0,0,0,0,0.0000,0.0000,0.00,0.00,0.00,0.000,0.000,0.000,0.000,0.000,0.000,0.00,0.00,0.00,0.0,0.0,
447,1768209594003,91151,0.00,0.00,31.48,0.00,0.00,0.00,0.00,0.00,0,0,0,0,0.0000,0.0000,0.00,0.00,0.00,0.000,0.000,0.000,0.000,0.000,0.000,0.00,0.00,0.00,0.0,0.0,
448,1768209595203,91351,0.00,0.00,31.23,0.00,0.00,0.00,0.00,0.00,0,0,0,0,0.0000,0.0000,0.00,0.00,0.00,0.000,0.000,0.000,0.000,0.000,0.000,0.00,0.00,0.00,0.0,0.0,
449,1768209595403,91551,0.00,0.00,31.34,0.00,0.00,0.00,0.00,0.00,0,0,0,0,0.0000,0.0000,0.00,0.00,0.00,0.000,0.000,0.000,0.000,0.000,0.000,0.00,0.00,0.00,0.0,0.0,
450,1768209595603,91751,0.00,0.00,31.74,0.00,0.00,0.00,0.00,0.00,0,0,0,0,0.0000,0.0000,0.00,0.00,0.00,0.000,0.000,0.000,0.000,0.000,0.000,0.00,0.00,0.00,0.0,0.0,
451,1768209595803,91951,0.00,0.00,31.30,0.00,0.00,0.00,0.00,0.00,0,0,0,0,0.0000,0.0000,0.00,0.00,0.00,0.000,0.000,0.000,0.000,0.000,0.000,0.00,0.00,0.00,0.0,0.0,
452,1768209596003,92151,0.00,0.00,31.74,0.00,0.00,0.00,0.00,0.00,0,0,0,0,0.0000,0.0000,0.00,0.00,0.00,0.000,0.000,0.000,0.000,0.000,0.000,0.00,0.00,0.00,0.0,0.0,
453,1768209597203,92351,96.00,0.00,31.34,0.00,0.00,0.00,0.00,0.00,0,0,0,0,0.0000,0.0000,0.00,0.00,0.00,0.000,0.000,0.000,0.000,0.000,0.000,0.00,0.00,0.00,0.0,0.0,
454,1768209597403,92551,12.00,0.00,31.14,0.00,0.00,0.00,0.00,0.00,0,0,0,0,0.0000,0.0000,0.00,0.00,0.00,0.000,0.000,0.000,0.000,0.000,0.000,0.00,0.00,0.00,0.0,0.0,
455,1768209597603,92751,72.00,0.00,31.26,0.00,0.00,0.00,0.00,0.00,0,0,0,0,0.0000,0.0000,0.00,0.00,0.00,0.000,0.000,0.000,0.000,0.000,0.000,0.00,0.00,0.00,0.0,0.0,
456,1768209597803,92951,0.00,0.00,31.26,0.00,0.00,0.00,0.00,0.00,0,0,0,0,0.0000,0.0000,0.00,0.00,0.00,0.000,0.000,0.000,0.000,0.000,0.000,0.00,0.00,0.00,0.0,0.0,
457,1768209598003,93151,24.00,0.00,31.52,0.00,0.00,0.00,0.00,0.00,0,0,0,0,0.0000,0.0000,0.00,0.00,0.00,0.000,0.000,0.000,0.000,0.000,0.000,0.00,0.00,0.00,0.0,0.0,
458,1768209599203,93351,0.00,0.00,31.21,0.00,0.00,0.00,0.00,0.00,0,0,0,0,0.0000,0.0000,0.00,0.00,0.00,0.000,0.000,0.000,0.000,0.000,0.000,0.00,0.00,0.00,0.0,0.0,
459,1768209599403,93551,0.00,0.00,31.19,0.04,0.00,0.00,0.00,0.00,0,0,0,0,0.0000,0.0000,0.00,0.00,0.00,0.000,0.000,0.000,0.000,0.000,0.000,0.00,0.00,0.00,0.0,0.0,
460,1768209599603,93751,0.00,0.00,31.23,0.00,0.00,0.00,0.00,0.00,0,0,0,0,0.0000,0.0000,0.00,0.00,0.00,0.000,0.000,0.000,0.000,0.000,0.000,0.00,0.00,0.00,0.0,0.0,
461,1768209599803,93951,0.00,0.00,31.19,0.00,0.00,0.00,0.00,0.00,0,0,0,0,0.0000,0.0000,0.00,0.00,0.00,0.000,0.000,0.000,0.000,0.000,0.000,0.00,0.00,0.00,0.0,0.0,
462,1768209600003,94151,258.00,0.00,30.93,0.00,0.00,0.00,0.00,0.00,0,0,0,0,0.0000,0.0000,0.00,0.00,0.00,0.000,0.000,0.000,0.000,0.000,0.000,0.00,0.00,0.00,0.0,0.0,
463,1768209601203,94351,24.00,0.00,31.34,0.00,0.00,0.00,0.00,0.00,0,0,0,0,0.0000,0.0000,0.00,0.00,0.00,0.000,0.000,0.000,0.000,0.000,0.000,0.00,0.00,0.00,0.0,0.0,
464,1768209601403,94551,12.00,0.00,31.26,0.00,0.00,0.00,0.00,0.00,0,0,0,0,0.0000,0.0000,0.00,0.00,0.00,0.000,0.000,0.000,0.000,0.000,0.000,0.00,0.00,0.00,0.0,0.0,
465,1768209601603,94751,0.00,0.00,30.00,0.09,0.00,0.00,0.00,0.00,0,0,0,0,0.0000,0.0000,0.00,0.00,0.00,0.000,0.000,0.000,0.000,0.000,0.000,0.00,0.00,0.00,0.0,0.0,
466,1768209601803,94951,714.00,0.00,31.59,0.00,0.00,0.00,0.00,0.00,0,0,0,0,0.0000,0.0000,0.00,0.00,0.00,0.000,0.000,0.000,0.000,0.000,0.000,0.00,0.00,0.00,0.0,0.0,
467,1768209602003,95151,0.00,0.00,30.88,0.31,0.00,0.00,0.00,0.00,0,0,0,0,0.0000,0.0000,0.00,0.00,0.00,0.000,0.000,0.000,0.000,0.000,0.000,0.00,0.00,0.00,0.0,0.0,
468,1768209603203,95351,366.00,0.00,31.14,0.00,0.00,0.00,0.00,0.00,0,0,0,0,0.0000,0.0000,0.00,0.00,0.00,0.000,0.000,0.000,0.000,0.000,0.000,0.00,0.00,0.00,0.0,0.0,
469,1768209603403,95551,0.00,0.00,31.21,0.00,0.00,0.00,0.00,0.00,0,0,0,0,0.0000,0.0000,0.00,0.00,0.00,0.000,0.000,0.000,0.000,0.000,0.000,0.00,0.00,0.00,0.0,0.0,
470,1768209603603,95751,576.00,0.00,31.34,0.00,0.00,0.00,0.00,0.00,0,0,0,0,0.0000,0.0000,0.00,0.00,0.00,0.000,0.000,0.000,0.000,0.000,0.000,0.00,0.00,0.00,0.0,0.0,
471,1768209603803,95951,786.00,0.00,30.13,1.01,0.00,0.00,0.00,0.00,0,0,0,0,0.0000,0.0000,0.00,0.00,0.00,0.000,0.000,0.000,0.000,0.000,0.000,0.00,0.00,0.00,0.0,0.0,
472,1768209604003,96151,810.00,0.00,30.66,0.00,0.00,0.00,0.00,0.00,0,0,0,0,0.0000,0.0000,0.00,0.00,0.00,0.000,0.000,0.000,0.000,0.000,0.000,0.00,0.00,0.00,0.0,0.0,
473,1768209605203,96351,786.00,0.00,31.45,0.00,0.00,0.00,0.00,0.00,0,0,0,0,0.0000,0.0000,0.00,0.00,0.00,0.000,0.000,0.000,0.000,0.000,0.000,0.00,0.00,0.00,0.0,0.0,
474,1768209605403,96551,840.00,0.00,30.82,0.00,0.00,0.00,0.00,0.00,0,0,0,0,0.0000,0.0000,0.00,0.00,0.00,0.000,0.000,0.000,0.000,0.000,0.000,0.00,0.00,0.00,0.0,0.0,
475,1768209605603,96751,1008.00,0.00,31.19,0.20,0.00,0.00,0.00,0.00,0,0,0,0,0.0000,0.0000,0.00,0.00,0.00,0.000,0.000,0.000,0.000,0.000,0.000,0.00,0.00,0.00,0.0,0.0,
476,1768209605803,96951,840.00,0.00,30.97,0.00,0.00,0.00,0.00,0.00,0,0,0,0,0.0000,0.0000,0.00,0.00,0.00,0.000,0.000,0.000,0.000,0.000,0.000,0.00,0.00,0.00,0.0,0.0,
477,1768209606003,97151,1008.00,0.00,31.04,0.00,0.00,0.00,0.00,0.00,0,0,0,0,0.0000,0.0000,0.00,0.00,0.00,0.000,0.000,0.000,0.000,0.000,0.000,0.00,0.00,0.00,0.0,0.0,
478,1768209607203,97351,234.00,0.00,31.48,0.00,0.00,0.00,0.00,0.00,0,0,0,0,0.0000,0.0000,0.00,0.00,0.00,0.000,0.000,0.000,0.000,0.000,0.000,0.00,0.00,0.00,0.0,0.0,
479,1768209607403,97551,0.00,0.00,30.92,0.16,0.00,0.00,0.00,0.00,0,0,0,0,0.0000,0.0000,0.00,0.00,0.00,0.000,0.000,0.000,0.000,0.000,0.000,0.00,0.00,0.00,0.0,0.0,
480,1768209607603,97751,0.00,0.00,31.61,0.00,0.00,0.00,0.00,0.00,0,0,0,0,0.0000,0.0000,0.00,0.00,0.00,0.000,0.000,0.000,0.000,0.000,0.000,0.00,0.00,0.00,0.0,0.0,
481,1768209607803,97951,0.00,0.00,31.15,0.00,0.00,0.00,0.00,0.00,0,0,0,0,0.0000,0.0000,0.00,0.00,0.00,0.000,0.000,0.000,0.000,0.000,0.000,0.00,0.00,0.00,0.0,0.0,
482,1768209608003,98151,0.00,0.00,31.25,0.00,0.00,0.00,0.00,0.00,0,0,0,0,0.0000,0.0000,0.00,0.00,0.00,0.000,0.000,0.000,0.000,0.000,0.000,0.00,0.00,0.00,0.0,0.0,
483,1768209609203,98351,0.00,0.00,31.45,0.00,0.00,0.00,0.00,0.00,0,0,0,0,0.0000,0.0000,0.00,0.00,0.00,0.000,0.000,0.000,0.000,0.000,0.000,0.00,0.00,0.00,0.0,0.0,
484,1768209609403,98551,0.00,0.00,30.99,0.00,0.00,0.00,0.00,0.00,0,0,0,0,0.0000,0.0000,0.00,0.00,0.00,0.000,0.000,0.000,0.000,0.000,0.000,0.00,0.00,0.00,0.0,0.0,
485,1768209609603,98751,0.00,0.00,31.78,0.00,0.00,0.00,0.00,0.00,0,0,0,0,0.0000,0.0000,0.00,0.00,0.00,0.000,0.000,0.000,0.000,0.000,0.000,0.00,0.00,0.00,0.0,0.0,
486,1768209609803,98951,0.00,0.00,30.27,0.49,0.00,0.00,0.00,0.00,0,0,0,0,0.0000,0.0000,0.00,0.00,0.00,0.000,0.000,0.000,0.000,0.000,0.000,0.00,0.00,0.00,0.0,0.0,
487,1768209610003,99151,0.00,0.00,31.48,0.00,0.00,0.00,0.00,0.00,0,0,0,0,0.0000,0.0000,0.00,0.00,0.00,0.000,0.000,0.000,0.000,0.000,0.000,0.00,0.00,0.00,0.0,0.0,
488,1768209611203,99351,0.00,0.00,31.34,0.13,0.00,0.00,0.00,0.00,0,0,0,0,0.0000,0.0000,0.00,0.00,0.00,0.000,0.000,0.000,0.000,0.000,0.000,0.00,0.00,0.00,0.0,0.0,
489,1768209611403,99551,0.00,0.00,31.59,0.00,0.00,0.00,0.00,0.00,0,0,0,0,0.0000,0.0000,0.00,0.00,0.00,0.000,0.000,0.000,0.000,0.000,0.000,0.00,0.00,0.00,0.0,0.0,
490,1768209611603,99751,0.00,0.00,31.04,0.00,0.00,0.00,0.00,0.00,0,0,0,0,0.0000,0.0000,0.00,0.00,0.00,0.000,0.000,0.000,0.000,0.000,0.000,0.00,0.00,0.00,0.0,0.0,
491,1768209611803,99951,0.00,0.00,31.30,0.00,0.00,0.00,0.00,0.00,0,0,0,0,0.0000,0.0000,0.00,0.00,0.00,0.000,0.000,0.000,0.000,0.000,0.000,0.00,0.00,0.00,0.0,0.0,
492,1768209612003,100151,0.00,0.00,30.97,0.00,0.00,0.00,0.00,0.00,0,0,0,0,0.0000,0.0000,0.00,0.00,0.00,0.000,0.000,0.000,0.000,0.000,0.000,0.00,0.00,0.00,0.0,0.0,
493,1768209613203,100351,0.00,0.00,31.01,0.00,0.00,0.00,0.00,0.00,0,0,0,0,0.0000,0.0000,0.00,0.00,0.00,0.000,0.000,0.000,0.000,0.000,0.000,0.00,0.00,0.00,0.0,0.0,
494,1768209613403,100551,0.00,0.00,31.63,0.00,0.00,0.00,0.00,0.00,0,0,0,0,0.0000,0.0000,0.00,0.00,0.00,0.000,0.000,0.000,0.000,0.000,0.000,0.00,0.00,0.00,0.0,0.0,
495,1768209613603,100751,0.00,0.00,31.01,0.05,0.00,0.00,0.00,0.00,0,0,0,0,0.0000,0.0000,0.00,0.00,0.00,0.000,0.000,0.000,0.000,0.000,0.000,0.00,0.00,0.00,0.0,0.0,
496,1768209613803,100951,0.00,0.00,31.19,0.02,0.00,0.00,0.00,0.00,0,0,0,0,0.0000,0.0000,0.00,0.00,0.00,0.000,0.000,0.000,0.000,0.000,0.000,0.00,0.00,0.00,0.0,0.0,
497,1768209614003,101151,0.00,0.00,31.26,0.00,0.00,0.00,0.00,0.00,0,0,0,0,0.0000,0.0000,0.00,0.00,0.00,0.000,0.000,0.000,0.000,0.000,0.000,0.00,0.00,0.00,0.0,0.0,
498,1768209615203,101351,0.00,0.00,31.23,0.00,0.00,0.00,0.00,0.00,0,0,0,0,0.0000,0.0000,0.00,0.00,0.00,0.000,0.000,0.000,0.000,0.000,0.000,0.00,0.00,0.00,0.0,0.0,
499,1768209615403,101551,0.00,0.00,30.64,0.00,0.00,0.00,0.00,0.00,0,0,0,0,0.0000,0.0000,0.00,0.00,0.00,0.000,0.000,0.000,0.000,0.000,0.000,0.00,0.00,0.00,0.0,0.0,
500,1768209615603,101751,0.00,0.00,31.21,0.00,0.00,0.00,0.00,0.00,0,0,0,0,0.0000,0.0000,0.00,0.00,0.00,0.000,0.000,0.000,0.000,0.000,0.000,0.00,0.00,0.00,0.0,0.0,
501,1768209615803,101951,0.00,0.00,31.32,0.00,0.00,0.00,0.00,0.00,0,0,0,0,0.0000,0.0000,0.00,0.00,0.00,0.000,0.000,0.000,0.000,0.000,0.000,0.00,0.00,0.00,0.0,0.0,
502,1768209616003,102151,12.00,0.00,31.15,0.00,0.00,0.00,0.00,0.00,0,0,0,0,0.0000,0.0000,0.00,0.00,0.00,0.000,0.000,0.000,0.000,0.000,0.000,0.00,0.00,0.00,0.0,0.0,
503,1768209617203,102351,0.00,0.00,31.23,0.00,0.00,0.00,0.00,0.00,0,0,0,0,0.0000,0.0000,0.00,0.00,0.00,0.000,0.000,0.000,0.000,0.000,0.000,0.00,0.00,0.00,0.0,0.0,
504,1768209617403,102551,0.00,0.00,31.01,0.00,0.00,0.00,0.00,0.00,0,0,0,0,0.0000,0.0000,0.00,0.00,0.00,0.000,0.000,0.000,0.000,0.000,0.000,0.00,0.00,0.00,0.0,0.0,
505,1768209617603,102751,0.00,0.00,31.04,0.00,0.00,0.00,0.00,0.00,0,0,0,0,0.0000,0.0000,0.00,0.00,0.00,0.000,0.000,0.000,0.000,0.000,0.000,0.00,0.00,0.00,0.0,0.0,
506,1768209617803,102951,12.00,0.00,30.90,0.00,0.00,0.00,0.00,0.00,0,0,0,0,0.0000,0.0000,0.00,0.00,0.00,0.000,0.000,0.000,0.000,0.000,0.000,0.00,0.00,0.00,0.0,0.0,
507,1768209618003,103151,0.00,0.00,31.48,0.26,0.00,0.00,0.00,0.00,0,0,0,0,0.0000,0.0000,0.00,0.00,0.00,0.000,0.000,0.000,0.000,0.000,0.000,0.00,0.00,0.00,0.0,0.0,
508,1768209619203,103351,0.00,0.00,31.23,0.00,0.00,0.00,0.00,0.00,0,0,0,0,0.0000,0.0000,0.00,0.00,0.00,0.000,0.000,0.000,0.000,0.000,0.000,0.00,0.00,0.00,0.0,0.0,
509,1768209619403,103551,0.00,0.00,30.93,0.02,0.00,0.00,0.00,0.00,0,0,0,0,0.0000,0.0000,0.00,0.00,0.00,0.000,0.000,0.000,0.000,0.000,0.000,0.00,0.00,0.00,0.0,0.0,
510,1768209619603,103751,0.00,0.00,31.54,0.00,0.00,0.00,0.00,0.00,0,0,0,0,0.0000,0.0000,0.00,0.00,0.00,0.000,0.000,0.000,0.000,0.000,0.000,0.00,0.00,0.00,0.0,0.0,
511,1768209619803,103951,0.00,0.00,31.52,0.00,0.00,0.00,0.00,0.00,0,0,0,0,0.0000,0.0000,0.00,0.00,0.00,0.000,0.000,0.000,0.000,0.000,0.000,0.00,0.00,0.00,0.0,0.0,
512,1768209620003,104151,0.00,0.00,31.15,0.00,0.00,0.00,0.00,0.00,0,0,0,0,0.0000,0.0000,0.00,0.00,0.00,0.000,0.000,0.000,0.000,0.000,0.000,0.00,0.00,0.00,0.0,0.0,
513,1768209621203,104351,0.00,0.00,31.12,0.00,0.00,0.00,0.00,0.00,0,0,0,0,0.0000,0.0000,0.00,0.00,0.00,0.000,0.000,0.000,0.000,0.000,0.000,0.00,0.00,0.00,0.0,0.0,
514,1768209621403,104551,0.00,0.00,31.19,0.00,0.00,0.00,0.00,0.00,0,0,0,0,0.0000,0.0000,0.00,0.00,0.00,0.000,0.000,0.000,0.000,0.000,0.000,0.00,0.00,0.00,0.0,0.0,
515,1768209621603,104751,0.00,0.00,30.42,0.22,0.00,0.00,0.00,0.00,0,0,0,0,0.0000,0.0000,0.00,0.00,0.00,0.000,0.000,0.000,0.000,0.000,0.000,0.00,0.00,0.00,0.0,0.0,
516,1768209621803,104951,762.00,0.00,31.30,0.00,0.00,0.00,0.00,0.00,0,0,0,0,0.0000,0.0000,0.00,0.00,0.00,0.000,0.000,0.000,0.000,0.000,0.000,0.00,0.00,0.00,0.0,0.0,
517,1768209622003,105151,0.00,0.00,31.26,0.04,0.00,0.00,0.00,0.00,0,0,0,0,0.0000,0.0000,0.00,0.00,0.00,0.000,0.000,0.000,0.000,0.000,0.000,0.00,0.00,0.00,0.0,0.0,
518,1768209623203,105351,0.00,0.00,31.19,0.11,0.00,0.00,0.00,0.00,0,0,0,0,0.0000,0.0000,0.00,0.00,0.00,0.000,0.000,0.000,0.000,0.000,0.000,0.00,0.00,0.00,0.0,0.0,
519,1768209623403,105551,0.00,0.00,31.15,0.24,0.00,0.00,0.00,0.00,0,0,0,0,0.0000,0.0000,0.00,0.00,0.00,0.000,0.000,0.000,0.000,0.000,0.000,0.00,0.00,0.00,0.0,0.0,
520,1768209623603,105751,0.00,0.00,31.23,0.00,0.00,0.00,0.00,0.00,0,0,0,0,0.0000,0.0000,0.00,0.00,0.00,0.000,0.000,0.000,0.000,0.000,0.000,0.00,0.00,0.00,0.0,0.0,
521,1768209623803,105951,0.00,0.00,31.58,0.00,0.00,0.00,0.00,0.00,0,0,0,0,0.0000,0.0000,0.00,0.00,0.00,0.000,0.000,0.000,0.000,0.000,0.000,0.00,0.00,0.00,0.0,0.0,
522,1768209624003,106151,0.00,0.00,31.12,0.00,0.00,0.00,0.00,0.00,0,0,0,0,0.0000,0.0000,0.00,0.00,0.00,0.000,0.000,0.000,0.000,0.000,0.000,0.00,0.00,0.00,0.0,0.0,
523,1768209625203,106351,0.00,0.00,31.26,0.00,0.00,0.00,0.00,0.00,0,0,0,0,0.0000,0.0000,0.00,0.00,0.00,0.000,0.000,0.000,0.000,0.000,0.000,0.00,0.00,0.00,0.0,0.0,
524,1768209625403,106551,0.00,0.00,31.23,0.00,0.00,0.00,0.00,0.00,0,0,0,0,0.0000,0.0000,0.00,0.00,0.00,0.000,0.000,0.000,0.000,0.000,0.000,0.00,0.00,0.00,0.0,0.0,
525,1768209625603,106751,0.00,0.00,30.97,0.00,0.00,0.00,0.00,0.00,0,0,0,0,0.0000,0.0000,0.00,0.00,0.00,0.000,0.000,0.000,0.000,0.000,0.000,0.00,0.00,0.00,0.0,0.0,
526,1768209625803,106951,0.00,0.00,31.32,0.00,0.00,0.00,0.00,0.00,0,0,0,0,0.0000,0.0000,0.00,0.00,0.00,0.000,0.000,0.000,0.000,0.000,0.000,0.00,0.00,0.00,0.0,0.0,
527,1768209626003,107151,0.00,0.00,31.28,0.04,0.00,0.00,0.00,0.00,0,0,0,0,0.0000,0.0000,0.00,0.00,0.00,0.000,0.000,0.000,0.000,0.000,0.000,0.00,0.00,0.00,0.0,0.0,
528,1768209627203,107351,0.00,0.00,31.45,0.00,0.00,0.00,0.00,0.00,0,0,0,0,0.0000,0.0000,0.00,0.00,0.00,0.000,0.000,0.000,0.000,0.000,0.000,0.00,0.00,0.00,0.0,0.0,
529,1768209627403,107551,0.00,0.00,29.93,0.00,0.00,0.00,0.00,0.00,0,0,0,0,0.0000,0.0000,0.00,0.00,0.00,0.000,0.000,0.000,0.000,0.000,0.000,0.00,0.00,0.00,0.0,0.0,
530,1768209627603,107751,0.00,0.00,31.12,0.00,0.00,0.00,0.00,0.00,0,0,0,0,0.0000,0.0000,0.00,0.00,0.00,0.000,0.000,0.000,0.000,0.000,0.000,0.00,0.00,0.00,0.0,0.0,
531,1768209627803,107951,0.00,0.00,31.34,0.00,0.00,0.00,0.00,0.00,0,0,0,0,0.0000,0.0000,0.00,0.00,0.00,0.000,0.000,0.000,0.000,0.000,0.000,0.00,0.00,0.00,0.0,0.0,
532,1768209628003,108151,0.00,0.00,31.15,0.04,0.00,0.00,0.00,0.00,0,0,0,0,0.0000,0.0000,0.00,0.00,0.00,0.000,0.000,0.000,0.000,0.000,0.000,0.00,0.00,0.00,0.0,0.0,
533,1768209629203,108351,0.00,0.00,31.26,0.00,0.00,0.00,0.00,0.00,0,0,0,0,0.0000,0.0000,0.00,0.00,0.00,0.000,0.000,0.000,0.000,0.000,0.000,0.00,0.00,0.00,0.0,0.0,
534,1768209629403,108551,0.00,0.00,31.30,0.00,0.00,0.00,0.00,0.00,0,0,0,0,0.0000,0.0000,0.00,0.00,0.00,0.000,0.000,0.000,0.000,0.000,0.000,0.00,0.00,0.00,0.0,0.0,
535,1768209629603,108751,0.00,0.00,31.59,0.00,0.00,0.00,0.00,0.00,0,0,0,0,0.0000,0.0000,0.00,0.00,0.00,0.000,0.000,0.000,0.000,0.000,0.000,0.00,0.00,0.00,0.0,0.0,
536,1768209629803,108951,0.00,0.00,31.21,0.00,0.00,0.00,0.00,0.00,0,0,0,0,0.0000,0.0000,0.00,0.00,0.00,0.000,0.000,0.000,0.000,0.000,0.000,0.00,0.00,0.00,0.0,0.0,
537,1768209630003,109151,0.00,0.00,31.03,0.00,0.00,0.00,0.00,0.00,0,0,0,0,0.0000,0.0000,0.00,0.00,0.00,0.000,0.000,0.000,0.000,0.000,0.000,0.00,0.00,0.00,0.0,0.0,
538,1768209631203,109351,0.00,0.00,31.23,0.16,0.00,0.00,0.00,0.00,0,0,0,0,0.0000,0.0000,0.00,0.00,0.00,0.000,0.000,0.000,0.000,0.000,0.000,0.00,0.00,0.00,0.0,0.0,
539,1768209631403,109551,0.00,0.00,31.19,0.09,0.00,0.00,0.00,0.00,0,0,0,0,0.0000,0.0000,0.00,0.00,0.00,0.000,0.000,0.000,0.000,0.000,0.000,0.00,0.00,0.00,0.0,0.0,
540,1768209631603,109751,12.00,0.00,31.81,0.00,0.00,0.00,0.00,0.00,0,0,0,0,0.0000,0.0000,0.00,0.00,0.00,0.000,0.000,0.000,0.000,0.000,0.000,0.00,0.00,0.00,0.0,0.0,
541,1768209631803,109951,0.00,0.00,31.32,0.05,0.00,0.00,0.00,0.00,0,0,0,0,0.0000,0.0000,0.00,0.00,0.00,0.000,0.000,0.000,0.000,0.000,0.000,0.00,0.00,0.00,0.0,0.0,
542,1768209632003,110151,0.00,0.00,31.04,0.00,0.00,0.00,0.00,0.00,0,0,0,0,0.0000,0.0000,0.00,0.00,0.00,0.000,0.000,0.000,0.000,0.000,0.000,0.00,0.00,0.00,0.0,0.0,
543,1768209633203,110351,0.00,0.00,31.45,0.00,0.00,0.00,0.00,0.00,0,0,0,0,0.0000,0.0000,0.00,0.00,0.00,0.000,0.000,0.000,0.000,0.000,0.000,0.00,0.00,0.00,0.0,0.0,
544,1768209633403,110551,0.00,0.00,31.50,0.00,0.00,0.00,0.00,0.00,0,0,0,0,0.0000,0.0000,0.00,0.00,0.00,0.000,0.000,0.000,0.000,0.000,0.000,0.00,0.00,0.00,0.0,0.0,
545,1768209633603,110751,0.00,0.00,31.06,0.00,0.00,0.00,0.00,0.00,0,0,0,0,0.0000,0.0000,0.00,0.00,0.00,0.000,0.000,0.000,0.000,0.000,0.000,0.00,0.00,0.00,0.0,0.0,
546,1768209633803,110951,0.00,0.00,31.14,0.00,0.00,0.00,0.00,0.00,0,0,0,0,0.0000,0.0000,0.00,0.00,0.00,0.000,0.000,0.000,0.000,0.000,0.000,0.00,0.00,0.00,0.0,0.0,
547,1768209634003,111151,0.00,0.00,31.19,0.00,0.00,0.00,0.00,0.00,0,0,0,0,0.0000,0.0000,0.00,0.00,0.00,0.000,0.000,0.000,0.000,0.000,0.000,0.00,0.00,0.00,0.0,0.0,
548,1768209635203,111351,0.00,0.00,30.99,0.00,0.00,0.00,0.00,0.00,0,0,0,0,0.0000,0.0000,0.00,0.00,0.00,0.000,0.000,0.000,0.000,0.000,0.000,0.00,0.00,0.00,0.0,0.0,
549,1768209635403,111551,0.00,0.00,31.12,0.00,0.00,0.00,0.00,0.00,0,0,0,0,0.0000,0.0000,0.00,0.00,0.00,0.000,0.000,0.000,0.000,0.000,0.000,0.00,0.00,0.00,0.0,0.0,
550,1768209635603,111751,0.00,0.00,31.23,0.00,0.00,0.00,0.00,0.00,0,0,0,0,0.0000,0.0000,0.00,0.00,0.00,0.000,0.000,0.000,0.000,0.000,0.000,0.00,0.00,0.00,0.0,0.0,
551,1768209635803,111951,0.00,0.00,31.14,0.04,0.00,0.00,0.00,0.00,0,0,0,0,0.0000,0.0000,0.00,0.00,0.00,0.000,0.000,0.000,0.000,0.000,0.000,0.00,0.00,0.00,0.0,0.0,
552,1768209636003,112151,0.00,0.00,31.15,0.00,0.00,0.00,0.00,0.00,0,0,0,0,0.0000,0.0000,0.00,0.00,0.00,0.000,0.000,0.000,0.000,0.000,0.000,0.00,0.00,0.00,0.0,0.0,
553,1768209637203,112351,0.00,0.00,31.23,0.00,0.00,0.00,0.00,0.00,0,0,0,0,0.0000,0.0000,0.00,0.00,0.00,0.000,0.000,0.000,0.000,0.000,0.000,0.00,0.00,0.00,0.0,0.0,
554,1768209637403,112551,0.00,0.00,31.78,0.00,0.00,0.00,0.00,0.00,0,0,0,0,0.0000,0.0000,0.00,0.00,0.00,0.000,0.000,0.000,0.000,0.000,0.000,0.00,0.00,0.00,0.0,0.0,
555,1768209637603,112751,0.00,0.00,31.03,0.00,0.00,0.00,0.00,0.00,0,0,0,0,0.0000,0.0000,0.00,0.00,0.00,0.000,0.000,0.000,0.000,0.000,0.000,0.00,0.00,0.00,0.0,0.0,
556,1768209637803,112951,0.00,0.00,31.23,0.00,0.00,0.00,0.00,0.00,0,0,0,0,0.0000,0.0000,0.00,0.00,0.00,0.000,0.000,0.000,0.000,0.000,0.000,0.00,0.00,0.00,0.0,0.0,
557,1768209638003,113151,12.00,0.00,30.99,0.00,0.00,0.00,0.00,0.00,0,0,0,0,0.0000,0.0000,0.00,0.00,0.00,0.000,0.000,0.000,0.000,0.000,0.000,0.00,0.00,0.00,0.0,0.0,
558,1768209639203,113351,0.00,0.00,31.17,0.07,0.00,0.00,0.00,0.00,0,0,0,0,0.0000,0.0000,0.00,0.00,0.00,0.000,0.000,0.000,0.000,0.000,0.000,0.00,0.00,0.00,0.0,0.0,
559,1768209639403,113551,0.00,0.00,31.48,0.00,0.00,0.00,0.00,0.00,0,0,0,0,0.0000,0.0000,0.00,0.00,0.00,0.000,0.000,0.000,0.000,0.000,0.000,0.00,0.00,0.00,0.0,0.0,
560,1768209639603,113751,0.00,0.00,30.97,0.00,0.00,0.00,0.00,0.00,0,0,0,0,0.0000,0.0000,0.00,0.00,0.00,0.000,0.000,0.000,0.000,0.000,0.000,0.00,0.00,0.00,0.0,0.0,
561,1768209639803,113951,0.00,0.00,31.25,0.00,0.00,0.00,0.00,0.00,0,0,0,0,0.0000,0.0000,0.00,0.00,0.00,0.000,0.000,0.000,0.000,0.000,0.000,0.00,0.00,0.00,0.0,0.0,
562,1768209640003,114151,0.00,0.00,31.26,0.00,0.00,0.00,0.00,0.00,0,0,0,0,0.0000,0.0000,0.00,0.00,0.00,0.000,0.000,0.000,0.000,0.000,0.000,0.00,0.00,0.00,0.0,0.0,
563,1768209641203,114351,0.00,0.00,31.54,0.00,0.00,0.00,0.00,0.00,0,0,0,0,0.0000,0.0000,0.00,0.00,0.00,0.000,0.000,0.000,0.000,0.000,0.000,0.00,0.00,0.00,0.0,0.0,
564,1768209641403,114551,0.00,0.00,31.19,0.00,0.00,0.00,0.00,0.00,0,0,0,0,0.0000,0.0000,0.00,0.00,0.00,0.000,0.000,0.000,0.000,0.000,0.000,0.00,0.00,0.00,0.0,0.0,
565,1768209641603,114751,0.00,0.00,31.26,0.00,0.00,0.00,0.00,0.00,0,0,0,0,0.0000,0.0000,0.00,0.00,0.00,0.000,0.000,0.000,0.000,0.000,0.000,0.00,0.00,0.00,0.0,0.0,
566,1768209641803,114951,0.00,0.00,31.34,0.00,0.00,0.00,0.00,0.00,0,0,0,0,0.0000,0.0000,0.00,0.00,0.00,0.000,0.000,0.000,0.000,0.000,0.000,0.00,0.00,0.00,0.0,0.0,
567,1768209642003,115151,0.00,0.00,30.90,0.00,0.00,0.00,0.00,0.00,0,0,0,0,0.0000,0.0000,0.00,0.00,0.00,0.000,0.000,0.000,0.000,0.000,0.000,0.00,0.00,0.00,0.0,0.0,
568,1768209643203,115351,0.00,0.00,31.30,0.31,0.00,0.00,0.00,0.00,0,0,0,0,0.0000,0.0000,0.00,0.00,0.00,0.000,0.000,0.000,0.000,0.000,0.000,0.00,0.00,0.00,0.0,0.0,
569,1768209643403,115551,0.00,0.00,30.92,0.00,0.00,0.00,0.00,0.00,0,0,0,0,0.0000,0.0000,0.00,0.00,0.00,0.000,0.000,0.000,0.000,0.000,0.000,0.00,0.00,0.00,0.0,0.0,
570,1768209643603,115751,0.00,0.00,31.19,0.00,0.00,0.00,0.00,0.00,0,0,0,0,0.0000,0.0000,0.00,0.00,0.00,0.000,0.000,0.000,0.000,0.000,0.000,0.00,0.00,0.00,0.0,0.0,
571,1768209643803,115951,0.00,0.00,30.57,0.09,0.00,0.00,0.00,0.00,0,0,0,0,0.0000,0.0000,0.00,0.00,0.00,0.000,0.000,0.000,0.000,0.000,0.000,0.00,0.00,0.00,0.0,0.0,
572,1768209644003,116151,0.00,0.00,31.15,0.00,0.00,0.00,0.00,0.00,0,0,0,0,0.0000,0.0000,0.00,0.00,0.00,0.000,0.000,0.000,0.000,0.000,0.000,0.00,0.00,0.00,0.0,0.0,
573,1768209645203,116351,0.00,0.00,31.41,0.00,0.00,0.00,0.00,0.00,0,0,0,0,0.0000,0.0000,0.00,0.00,0.00,0.000,0.000,0.000,0.000,0.000,0.000,0.00,0.00,0.00,0.0,0.0,
574,1768209645403,116551,0.00,0.00,30.97,0.00,0.00,0.00,0.00,0.00,0,0,0,0,0.0000,0.0000,0.00,0.00,0.00,0.000,0.000,0.000,0.000,0.000,0.000,0.00,0.00,0.00,0.0,0.0,
575,1768209645603,116751,0.00,0.00,30.93,0.00,0.00,0.00,0.00,0.00,0,0,0,0,0.0000,0.0000,0.00,0.00,0.00,0.000,0.000,0.000,0.000,0.000,0.000,0.00,0.00,0.00,0.0,0.0,
576,1768209645803,116951,0.00,0.00,31.17,0.00,0.00,0.00,0.00,0.00,0,0,0,0,0.0000,0.0000,0.00,0.00,0.00,0.000,0.000,0.000,0.000,0.000,0.000,0.00,0.00,0.00,0.0,0.0,
577,1768209646003,117151,0.00,0.00,31.19,0.00,0.00,0.00,0.00,0.00,0,0,0,0,0.0000,0.0000,0.00,0.00,0.00,0.000,0.000,0.000,0.000,0.000,0.000,0.00,0.00,0.00,0.0,0.0,
578,1768209647203,117351,0.00,0.00,30.97,0.05,0.00,0.00,0.00,0.00,0,0,0,0,0.0000,0.0000,0.00,0.00,0.00,0.000,0.000,0.000,0.000,0.000,0.000,0.00,0.00,0.00,0.0,0.0,
579,1768209647403,117551,0.00,0.00,31.04,0.00,0.00,0.00,0.00,0.00,0,0,0,0,0.0000,0.0000,0.00,0.00,0.00,0.000,0.000,0.000,0.000,0.000,0.000,0.00,0.00,0.00,0.0,0.0,
580,1768209647603,117751,12.00,0.00,31.23,0.00,0.00,0.00,0.00,0.00,0,0,0,0,0.0000,0.0000,0.00,0.00,0.00,0.000,0.000,0.000,0.000,0.000,0.000,0.00,0.00,0.00,0.0,0.0,
581,1768209647803,117951,0.00,0.00,31.43,0.00,0.00,0.00,0.00,0.00,0,0,0,0,0.0000,0.0000,0.00,0.00,0.00,0.000,0.000,0.000,0.000,0.000,0.000,0.00,0.00,0.00,0.0,0.0,
582,1768209648003,118151,0.00,0.00,31.04,0.37,0.00,0.00,0.00,0.00,0,0,0,0,0.0000,0.0000,0.00,0.00,0.00,0.000,0.000,0.000,0.000,0.000,0.000,0.00,0.00,0.00,0.0,0.0,
583,1768209649203,118351,0.00,0.00,31.06,0.00,0.00,0.00,0.00,0.00,0,0,0,0,0.0000,0.0000,0.00,0.00,0.00,0.000,0.000,0.000,0.000,0.000,0.000,0.00,0.00,0.00,0.0,0.0,
584,1768209649403,118551,0.00,0.00,31.15,0.00,0.00,0.00,0.00,0.00,0,0,0,0,0.0000,0.0000,0.00,0.00,0.00,0.000,0.000,0.000,0.000,0.000,0.000,0.00,0.00,0.00,0.0,0.0,
585,1768209649603,118751,0.00,0.00,31.15,0.18,0.00,0.00,0.00,0.00,0,0,0,0,0.0000,0.0000,0.00,0.00,0.00,0.000,0.000,0.000,0.000,0.000,0.000,0.00,0.00,0.00,0.0,0.0,
586,1768209649803,118951,0.00,0.00,30.93,0.05,0.00,0.00,0.00,0.00,0,0,0,0,0.0000,0.0000,0.00,0.00,0.00,0.000,0.000,0.000,0.000,0.000,0.000,0.00,0.00,0.00,0.0,0.0,
587,1768209650003,119151,0.00,0.00,31.58,0.00,0.00,0.00,0.00,0.00,0,0,0,0,0.0000,0.0000,0.00,0.00,0.00,0.000,0.000,0.000,0.000,0.000,0.000,0.00,0.00,0.00,0.0,0.0,
588,1768209651203,119351,0.00,0.00,31.04,0.00,0.00,0.00,0.00,0.00,0,0,0,0,0.0000,0.0000,0.00,0.00,0.00,0.000,0.000,0.000,0.000,0.000,0.000,0.00,0.00,0.00,0.0,0.0,
589,1768209651403,119551,0.00,0.00,31.58,0.00,0.00,0.00,0.00,0.00,0,0,0,0,0.0000,0.0000,0.00,0.00,0.00,0.000,0.000,0.000,0.000,0.000,0.000,0.00,0.00,0.00,0.0,0.0,
590,1768209651603,119751,0.00,0.00,31.04,0.00,0.00,0.00,0.00,0.00,0,0,0,0,0.0000,0.0000,0.00,0.00,0.00,0.000,0.000,0.000,0.000,0.000,0.000,0.00,0.00,0.00,0.0,0.0,
591,1768209651803,119951,0.00,0.00,30.93,0.00,0.00,0.00,0.00,0.00,0,0,0,0,0.0000,0.0000,0.00,0.00,0.00,0.000,0.000,0.000,0.000,0.000,0.000,0.00,0.00,0.00,0.0,0.0,
592,1768209652003,120151,0.00,0.00,31.14,0.00,0.00,0.00,0.00,0.00,0,0,0,0,0.0000,0.0000,0.00,0.00,0.00,0.000,0.000,0.000,0.000,0.000,0.000,0.00,0.00,0.00,0.0,0.0,
593,1768209653203,120351,12.00,0.00,30.90,0.00,0.00,0.00,0.00,0.00,0,0,0,0,0.0000,0.0000,0.00,0.00,0.00,0.000,0.000,0.000,0.000,0.000,0.000,0.00,0.00,0.00,0.0,0.0,
594,1768209653403,120551,0.00,0.00,30.93,0.02,0.00,0.00,0.00,0.00,0,0,0,0,0.0000,0.0000,0.00,0.00,0.00,0.000,0.000,0.000,0.000,0.000,0.000,0.00,0.00,0.00,0.0,0.0,
595,1768209653603,120751,12.00,0.00,30.71,0.05,0.00,0.00,0.00,0.00,0,0,0,0,0.0000,0.0000,0.00,0.00,0.00,0.000,0.000,0.000,0.000,0.000,0.000,0.00,0.00,0.00,0.0,0.0,
596,1768209653803,120951,36.00,0.00,30.82,0.38,0.00,0.00,0.00,0.00,0,0,0,0,0.0000,0.0000,0.00,0.00,0.00,0.000,0.000,0.000,0.000,0.000,0.000,0.00,0.00,0.00,0.0,0.0,
597,1768209654003,121151,0.00,0.00,30.62,0.00,0.00,0.00,0.00,0.00,0,0,0,0,0.0000,0.0000,0.00,0.00,0.00,0.000,0.000,0.000,0.000,0.000,0.000,0.00,0.00,0.00,0.0,0.0,
598,1768209655203,121351,0.00,0.00,30.97,0.00,0.00,0.00,0.00,0.00,0,0,0,0,0.0000,0.0000,0.00,0.00,0.00,0.000,0.000,0.000,0.000,0.000,0.000,0.00,0.00,0.00,0.0,0.0,
599,1768209655403,121551,12.00,0.00,31.17,0.00,0.00,0.00,0.00,0.00,0,0,0,0,0.0000,0.0000,0.00,0.00,0.00,0.000,0.000,0.000,0.000,0.000,0.000,0.00,0.00,0.00,0.0,0.0,
600,1768209655603,121751,0.00,0.00,30.79,0.00,0.00,0.00,0.00,0.00,0,0,0,0,0.0000,0.0000,0.00,0.00,0.00,0.000,0.000,0.000,0.000,0.000,0.000,0.00,0.00,0.00,0.0,0.0,
601,1768209655803,121951,0.00,0.00,30.71,0.00,0.00,0.00,0.00,0.00,0,0,0,0,0.0000,0.0000,0.00,0.00,0.00,0.000,0.000,0.000,0.000,0.000,0.000,0.00,0.00,0.00,0.0,0.0,
602,1768209656003,122151,0.00,0.00,31.12,0.02,0.00,0.00,0.00,0.00,0,0,0,0,0.0000,0.0000,0.00,0.00,0.00,0.000,0.000,0.000,0.000,0.000,0.000,0.00,0.00,0.00,0.0,0.0,
603,1768209657203,122351,0.00,0.00,30.97,0.00,0.00,0.00,0.00,0.00,0,0,0,0,0.0000,0.0000,0.00,0.00,0.00,0.000,0.000,0.000,0.000,0.000,0.000,0.00,0.00,0.00,0.0,0.0,
604,1768209657403,122551,0.00,0.00,30.71,0.00,0.00,0.00,0.00,0.00,0,0,0,0,0.0000,0.0000,0.00,0.00,0.00,0.000,0.000,0.000,0.000,0.000,0.000,0.00,0.00,0.00,0.0,0.0,
605,1768209657603,122751,0.00,0.00,30.97,0.02,0.00,0.00,0.00,0.00,0,0,0,0,0.0000,0.0000,0.00,0.00,0.00,0.000,0.000,0.000,0.000,0.000,0.000,0.00,0.00,0.00,0.0,0.0,
606,1768209657803,122951,0.00,0.00,30.86,0.00,0.00,0.00,0.00,0.00,0,0,0,0,0.0000,0.0000,0.00,0.00,0.00,0.000,0.000,0.000,0.000,0.000,0.000,0.00,0.00,0.00,0.0,0.0,
607,1768209658003,123151,0.00,0.00,30.82,0.00,0.00,0.00,0.00,0.00,0,0,0,0,0.0000,0.0000,0.00,0.00,0.00,0.000,0.000,0.000,0.000,0.000,0.000,0.00,0.00,0.00,0.0,0.0,
608,1768209659203,123351,0.00,0.00,30.82,0.00,0.00,0.00,0.00,0.00,0,0,0,0,0.0000,0.0000,0.00,0.00,0.00,0.000,0.000,0.000,0.000,0.000,0.000,0.00,0.00,0.00,0.0,0.0,
609,1768209659403,123551,0.00,0.00,30.97,0.35,0.00,0.00,0.00,0.00,0,0,0,0,0.0000,0.0000,0.00,0.00,0.00,0.000,0.000,0.000,0.000,0.000,0.000,0.00,0.00,0.00,0.0,0.0,
610,1768209659603,123751,0.00,0.00,30.84,0.00,0.00,0.00,0.00,0.00,0,0,0,0,0.0000,0.0000,0.00,0.00,0.00,0.000,0.000,0.000,0.000,0.000,0.000,0.00,0.00,0.00,0.0,0.0,
611,1768209659803,123951,0.00,0.00,32.38,0.00,0.00,0.00,0.00,0.00,0,0,0,0,0.0000,0.0000,0.00,0.00,0.00,0.000,0.000,0.000,0.000,0.000,0.000,0.00,0.00,0.00,0.0,0.0,
612,1768209660003,124151,0.00,0.00,32.00,0.00,0.00,0.00,0.00,0.00,0,0,0,0,0.0000,0.0000,0.00,0.00,0.00,0.000,0.000,0.000,0.000,0.000,0.000,0.00,0.00,0.00,0.0,0.0,
613,1768209661203,124351,0.00,0.00,32.29,0.00,0.00,0.00,0.00,0.00,0,0,0,0,0.0000,0.0000,0.00,0.00,0.00,0.000,0.000,0.000,0.000,0.000,0.000,0.00,0.00,0.00,0.0,0.0,
614,1768209661403,124551,0.00,0.00,31.19,0.44,0.00,0.00,0.00,0.00,0,0,0,0,0.0000,0.0000,0.00,0.00,0.00,0.000,0.000,0.000,0.000,0.000,0.000,0.00,0.00,0.00,0.0,0.0,
615,1768209661603,124751,0.00,0.00,31.92,0.07,0.00,0.00,0.00,0.00,0,0,0,0,0.0000,0.0000,0.00,0.00,0.00,0.000,0.000,0.000,0.000,0.000,0.000,0.00,0.00,0.00,0.0,0.0,
616,1768209661803,124951,0.00,0.00,32.00,0.00,0.00,0.00,0.00,0.00,0,0,0,0,0.0000,0.0000,0.00,0.00,0.00,0.000,0.000,0.000,0.000,0.000,0.000,0.00,0.00,0.00,0.0,0.0,
617,1768209662003,125151,0.00,0.00,32.18,0.00,0.00,0.00,0.00,0.00,0,0,0,0,0.0000,0.0000,0.00,0.00,0.00,0.000,0.000,0.000,0.000,0.000,0.000,0.00,0.00,0.00,0.0,0.0,
618,1768209663203,125351,0.00,0.00,31.59,0.00,0.00,0.00,0.00,0.00,0,0,0,0,0.0000,0.0000,0.00,0.00,0.00,0.000,0.000,0.000,0.000,0.000,0.000,0.00,0.00,0.00,0.0,0.0,
619,1768209663403,125551,0.00,0.00,32.00,0.00,0.00,0.00,0.00,0.00,0,0,0,0,0.0000,0.0000,0.00,0.00,0.00,0.000,0.000,0.000,0.000,0.000,0.000,0.00,0.00,0.00,0.0,0.0,
620,1768209663603,125751,0.00,0.00,31.92,0.00,0.00,0.00,0.00,0.00,0,0,0,0,0.0000,0.0000,0.00,0.00,0.00,0.000,0.000,0.000,0.000,0.000,0.000,0.00,0.00,0.00,0.0,0.0,
621,1768209663803,125951,0.00,0.00,31.98,0.00,0.00,0.00,0.00,0.00,0,0,0,0,0.0000,0.0000,0.00,0.00,0.00,0.000,0.000,0.000,0.000,0.000,0.000,0.00,0.00,0.00,0.0,0.0,
622,1768209664003,126151,0.00,0.00,32.00,0.00,0.00,0.00,0.00,0.00,0,0,0,0,0.0000,0.0000,0.00,0.00,0.00,0.000,0.000,0.000,0.000,0.000,0.000,0.00,0.00,0.00,0.0,0.0,
623,1768209665203,126351,0.00,0.00,31.59,0.00,0.00,0.00,0.00,0.00,0,0,0,0,0.0000,0.0000,0.00,0.00,0.00,0.000,0.000,0.000,0.000,0.000,0.000,0.00,0.00,0.00,0.0,0.0,
624,1768209665403,126551,0.00,0.00,31.76,0.00,0.00,0.00,0.00,0.00,0,0,0,0,0.0000,0.0000,0.00,0.00,0.00,0.000,0.000,0.000,0.000,0.000,0.000,0.00,0.00,0.00,0.0,0.0,
625,1768209665603,126751,0.00,0.00,31.50,0.00,0.00,0.00,0.00,0.00,0,0,0,0,0.0000,0.0000,0.00,0.00,0.00,0.000,0.000,0.000,0.000,0.000,0.000,0.00,0.00,0.00,0.0,0.0,
626,1768209665803,126951,12.00,0.00,31.54,0.00,0.00,0.00,0.00,0.00,0,0,0,0,0.0000,0.0000,0.00,0.00,0.00,0.000,0.000,0.000,0.000,0.000,0.000,0.00,0.00,0.00,0.0,0.0,
627,1768209666003,127151,0.00,0.00,31.52,0.00,0.00,0.00,0.00,0.00,0,0,0,0,0.0000,0.0000,0.00,0.00,0.00,0.000,0.000,0.000,0.000,0.000,0.000,0.00,0.00,0.00,0.0,0.0,
628,1768209667203,127351,12.00,0.00,31.30,0.00,0.00,0.00,0.00,0.00,0,0,0,0,0.0000,0.0000,0.00,0.00,0.00,0.000,0.000,0.000,0.000,0.000,0.000,0.00,0.00,0.00,0.0,0.0,
629,1768209667403,127551,12.00,0.00,31.19,0.00,0.00,0.00,0.00,0.00,0,0,0,0,0.0000,0.0000,0.00,0.00,0.00,0.000,0.000,0.000,0.000,0.000,0.000,0.00,0.00,0.00,0.0,0.0,
630,1768209667603,127751,0.00,0.00,31.78,0.00,0.00,0.00,0.00,0.00,0,0,0,0,0.0000,0.0000,0.00,0.00,0.00,0.000,0.000,0.000,0.000,0.000,0.000,0.00,0.00,0.00,0.0,0.0,
631,1768209667803,127951,12.00,0.00,31.63,0.00,0.00,0.00,0.00,0.00,0,0,0,0,0.0000,0.0000,0.00,0.00,0.00,0.000,0.000,0.000,0.000,0.000,0.000,0.00,0.00,0.00,0.0,0.0,
632,1768209668003,128151,0.00,0.00,31.15,0.00,0.00,0.00,0.00,0.00,0,0,0,0,0.0000,0.0000,0.00,0.00,0.00,0.000,0.000,0.000,0.000,0.000,0.000,0.00,0.00,0.00,0.0,0.0,
633,1768209669203,128351,0.00,0.00,31.48,0.05,0.00,0.00,0.00,0.00,0,0,0,0,0.0000,0.0000,0.00,0.00,0.00,0.000,0.000,0.000,0.000,0.000,0.000,0.00,0.00,0.00,0.0,0.0,
634,1768209669403,128551,0.00,0.00,31.30,0.00,0.00,0.00,0.00,0.00,0,0,0,0,0.0000,0.0000,0.00,0.00,0.00,0.000,0.000,0.000,0.000,0.000,0.000,0.00,0.00,0.00,0.0,0.0,
635,1768209669603,128751,0.00,0.00,31.26,0.20,0.00,0.00,0.00,0.00,0,0,0,0,0.0000,0.0000,0.00,0.00,0.00,0.000,0.000,0.000,0.000,0.000,0.000,0.00,0.00,0.00,0.0,0.0,
636,1768209669803,128951,0.00,0.00,31.59,0.00,0.00,0.00,0.00,0.00,0,0,0,0,0.0000,0.0000,0.00,0.00,0.00,0.000,0.000,0.000,0.000,0.000,0.000,0.00,0.00,0.00,0.0,0.0,
637,1768209670003,129151,0.00,0.00,31.15,0.20,0.00,0.00,0.00,0.00,0,0,0,0,0.0000,0.0000,0.00,0.00,0.00,0.000,0.000,0.000,0.000,0.000,0.000,0.00,0.00,0.00,0.0,0.0,
638,1768209671203,129351,0.00,0.00,31.56,0.00,0.00,0.00,0.00,0.00,0,0,0,0,0.0000,0.0000,0.00,0.00,0.00,0.000,0.000,0.000,0.000,0.000,0.000,0.00,0.00,0.00,0.0,0.0,
639,1768209671403,129551,0.00,0.00,31.23,0.00,0.00,0.00,0.00,0.00,0,0,0,0,0.0000,0.0000,0.00,0.00,0.00,0.000,0.000,0.000,0.000,0.000,0.000,0.00,0.00,0.00,0.0,0.0,
640,1768209671603,129751,12.00,0.00,31.23,0.00,0.00,0.00,0.00,0.00,0,0,0,0,0.0000,0.0000,0.00,0.00,0.00,0.000,0.000,0.000,0.000,0.000,0.000,0.00,0.00,0.00,0.0,0.0,
641,1768209671803,129951,0.00,0.00,31.30,0.05,0.00,0.00,0.00,0.00,0,0,0,0,0.0000,0.0000,0.00,0.00,0.00,0.000,0.000,0.000,0.000,0.000,0.000,0.00,0.00,0.00,0.0,0.0,
642,1768209672003,130151,0.00,0.00,31.30,0.00,0.00,0.00,0.00,0.00,0,0,0,0,0.0000,0.0000,0.00,0.00,0.00,0.000,0.000,0.000,0.000,0.000,0.000,0.00,0.00,0.00,0.0,0.0,
643,1768209673203,130351,0.00,0.00,31.61,0.00,0.00,0.00,0.00,0.00,0,0,0,0,0.0000,0.0000,0.00,0.00,0.00,0.000,0.000,0.000,0.000,0.000,0.000,0.00,0.00,0.00,0.0,0.0,
644,1768209673403,130551,0.00,0.00,31.34,0.04,0.00,0.00,0.00,0.00,0,0,0,0,0.0000,0.0000,0.00,0.00,0.00,0.000,0.000,0.000,0.000,0.000,0.000,0.00,0.00,0.00,0.0,0.0,
645,1768209673603,130751,0.00,0.00,31.15,0.00,0.00,0.00,0.00,0.00,0,0,0,0,0.0000,0.0000,0.00,0.00,0.00,0.000,0.000,0.000,0.000,0.000,0.000,0.00,0.00,0.00,0.0,0.0,
646,1768209673803,130951,0.00,0.00,31.15,0.00,0.00,0.00,0.00,0.00,0,0,0,0,0.0000,0.0000,0.00,0.00,0.00,0.000,0.000,0.000,0.000,0.000,0.000,0.00,0.00,0.00,0.0,0.0,
647,1768209674003,131151,0.00,0.00,31.26,0.05,0.00,0.00,0.00,0.00,0,0,0,0,0.0000,0.0000,0.00,0.00,0.00,0.000,0.000,0.000,0.000,0.000,0.000,0.00,0.00,0.00,0.0,0.0,
648,1768209675203,131351,0.00,0.00,31.74,0.00,0.00,0.00,0.00,0.00,0,0,0,0,0.0000,0.0000,0.00,0.00,0.00,0.000,0.000,0.000,0.000,0.000,0.000,0.00,0.00,0.00,0.0,0.0,
649,1768209675403,131551,0.00,0.00,31.30,0.00,0.00,0.00,0.00,0.00,0,0,0,0,0.0000,0.0000,0.00,0.00,0.00,0.000,0.000,0.000,0.000,0.000,0.000,0.00,0.00,0.00,0.0,0.0,
650,1768209675603,131751,0.00,0.00,31.21,0.09,0.00,0.00,0.00,0.00,0,0,0,0,0.0000,0.0000,0.00,0.00,0.00,0.000,0.000,0.000,0.000,0.000,0.000,0.00,0.00,0.00,0.0,0.0,
651,1768209675803,131951,0.00,0.00,31.41,0.02,0.00,0.00,0.00,0.00,0,0,0,0,0.0000,0.0000,0.00,0.00,0.00,0.000,0.000,0.000,0.000,0.000,0.000,0.00,0.00,0.00,0.0,0.0,
652,1768209676003,132151,0.00,0.00,31.34,0.00,0.00,0.00,0.00,0.00,0,0,0,0,0.0000,0.0000,0.00,0.00,0.00,0.000,0.000,0.000,0.000,0.000,0.000,0.00,0.00,0.00,0.0,0.0,
653,1768209677203,132351,0.00,0.00,31.23,0.13,0.00,0.00,0.00,0.00,0,0,0,0,0.0000,0.0000,0.00,0.00,0.00,0.000,0.000,0.000,0.000,0.000,0.000,0.00,0.00,0.00,0.0,0.0,
654,1768209677403,132551,0.00,0.00,31.25,0.00,0.00,0.00,0.00,0.00,0,0,0,0,0.0000,0.0000,0.00,0.00,0.00,0.000,0.000,0.000,0.000,0.000,0.000,0.00,0.00,0.00,0.0,0.0,
655,1768209677603,132751,0.00,0.00,31.34,0.00,0.00,0.00,0.00,0.00,0,0,0,0,0.0000,0.0000,0.00,0.00,0.00,0.000,0.000,0.000,0.000,0.000,0.000,0.00,0.00,0.00,0.0,0.0,
656,1768209677803,132951,0.00,0.00,31.14,1.15,0.00,0.00,0.00,0.00,0,0,0,0,0.0000,0.0000,0.00,0.00,0.00,0.000,0.000,0.000,0.000,0.000,0.000,0.00,0.00,0.00,0.0,0.0,
657,1768209678003,133151,0.00,0.00,30.16,0.00,0.00,0.00,0.00,0.00,0,0,0,0,0.0000,0.0000,0.00,0.00,0.00,0.000,0.000,0.000,0.000,0.000,0.000,0.00,0.00,0.00,0.0,0.0,
658,1768209679203,133351,0.00,0.00,31.78,0.00,0.00,0.00,0.00,0.00,0,0,0,0,0.0000,0.0000,0.00,0.00,0.00,0.000,0.000,0.000,0.000,0.000,0.000,0.00,0.00,0.00,0.0,0.0,
659,1768209679403,133551,0.00,0.00,31.45,0.00,0.00,0.00,0.00,0.00,0,0,0,0,0.0000,0.0000,0.00,0.00,0.00,0.000,0.000,0.000,0.000,0.000,0.000,0.00,0.00,0.00,0.0,0.0,
660,1768209679603,133751,0.00,0.00,31.56,0.00,0.00,0.00,0.00,0.00,0,0,0,0,0.0000,0.0000,0.00,0.00,0.00,0.000,0.000,0.000,0.000,0.000,0.000,0.00,0.00,0.00,0.0,0.0,
661,1768209679803,133951,0.00,0.00,31.12,0.11,0.00,0.00,0.00,0.00,0,0,0,0,0.0000,0.0000,0.00,0.00,0.00,0.000,0.000,0.000,0.000,0.000,0.000,0.00,0.00,0.00,0.0,0.0,
662,1768209680003,134151,0.00,0.00,31.36,0.00,0.00,0.00,0.00,0.00,0,0,0,0,0.0000,0.0000,0.00,0.00,0.00,0.000,0.000,0.000,0.000,0.000,0.000,0.00,0.00,0.00,0.0,0.0,
663,1768209681203,134351,0.00,0.00,31.15,0.00,0.00,0.00,0.00,0.00,0,0,0,0,0.0000,0.0000,0.00,0.00,0.00,0.000,0.000,0.000,0.000,0.000,0.000,0.00,0.00,0.00,0.0,0.0,
664,1768209681403,134551,0.00,0.00,31.41,0.05,0.00,0.00,0.00,0.00,0,0,0,0,0.0000,0.0000,0.00,0.00,0.00,0.000,0.000,0.000,0.000,0.000,0.000,0.00,0.00,0.00,0.0,0.0,
665,1768209681603,134751,0.00,0.00,31.17,0.02,0.00,0.00,0.00,0.00,0,0,0,0,0.0000,0.0000,0.00,0.00,0.00,0.000,0.000,0.000,0.000,0.000,0.000,0.00,0.00,0.00,0.0,0.0,
666,1768209681803,134951,0.00,0.00,31.74,0.00,0.00,0.00,0.00,0.00,0,0,0,0,0.0000,0.0000,0.00,0.00,0.00,0.000,0.000,0.000,0.000,0.000,0.000,0.00,0.00,0.00,0.0,0.0,
667,1768209682003,135151,0.00,0.00,31.23,0.02,0.00,0.00,0.00,0.00,0,0,0,0,0.0000,0.0000,0.00,0.00,0.00,0.000,0.000,0.000,0.000,0.000,0.000,0.00,0.00,0.00,0.0,0.0,
668,1768209683203,135351,0.00,0.00,31.26,0.00,0.00,0.00,0.00,0.00,0,0,0,0,0.0000,0.0000,0.00,0.00,0.00,0.000,0.000,0.000,0.000,0.000,0.000,0.00,0.00,0.00,0.0,0.0,
669,1768209683403,135551,0.00,0.00,31.63,0.00,0.00,0.00,0.00,0.00,0,0,0,0,0.0000,0.0000,0.00,0.00,0.00,0.000,0.000,0.000,0.000,0.000,0.000,0.00,0.00,0.00,0.0,0.0,
670,1768209683603,135751,0.00,0.00,31.52,0.00,0.00,0.00,0.00,0.00,0,0,0,0,0.0000,0.0000,0.00,0.00,0.00,0.000,0.000,0.000,0.000,0.000,0.000,0.00,0.00,0.00,0.0,0.0,
671,1768209683803,135951,0.00,0.00,31.30,0.05,0.00,0.00,0.00,0.00,0,0,0,0,0.0000,0.0000,0.00,0.00,0.00,0.000,0.000,0.000,0.000,0.000,0.000,0.00,0.00,0.00,0.0,0.0,
672,1768209684003,136151,0.00,0.00,31.34,0.00,0.00,0.00,0.00,0.00,0,0,0,0,0.0000,0.0000,0.00,0.00,0.00,0.000,0.000,0.000,0.000,0.000,0.000,0.00,0.00,0.00,0.0,0.0,
673,1768209685203,136351,0.00,0.00,31.45,0.00,0.00,0.00,0.00,0.00,0,0,0,0,0.0000,0.0000,0.00,0.00,0.00,0.000,0.000,0.000,0.000,0.000,0.000,0.00,0.00,0.00,0.0,0.0,
674,1768209685403,136551,0.00,0.00,31.52,0.00,0.00,0.00,0.00,0.00,0,0,0,0,0.0000,0.0000,0.00,0.00,0.00,0.000,0.000,0.000,0.000,0.000,0.000,0.00,0.00,0.00,0.0,0.0,
675,1768209685603,136751,0.00,0.00,31.25,0.00,0.00,0.00,0.00,0.00,0,0,0,0,0.0000,0.0000,0.00,0.00,0.00,0.000,0.000,0.000,0.000,0.000,0.000,0.00,0.00,0.00,0.0,0.0,
676,1768209685803,136951,0.00,0.00,31.41,0.00,0.00,0.00,0.00,0.00,0,0,0,0,0.0000,0.0000,0.00,0.00,0.00,0.000,0.000,0.000,0.000,0.000,0.000,0.00,0.00,0.00,0.0,0.0,
677,1768209686003,137151,0.00,0.00,31.34,0.02,0.00,0.00,0.00,0.00,0,0,0,0,0.0000,0.0000,0.00,0.00,0.00,0.000,0.000,0.000,0.000,0.000,0.000,0.00,0.00,0.00,0.0,0.0,
678,1768209687203,137351,0.00,0.00,31.19,0.00,0.00,0.00,0.00,0.00,0,0,0,0,0.0000,0.0000,0.00,0.00,0.00,0.000,0.000,0.000,0.000,0.000,0.000,0.00,0.00,0.00,0.0,0.0,
679,1768209687403,137551,0.00,0.00,32.00,0.00,0.00,0.00,0.00,0.00,0,0,0,0,0.0000,0.0000,0.00,0.00,0.00,0.000,0.000,0.000,0.000,0.000,0.000,0.00,0.00,0.00,0.0,0.0,
680,1768209687603,137751,0.00,0.00,32.78,0.00,0.00,0.00,0.00,0.00,0,0,0,0,0.0000,0.0000,0.00,0.00,0.00,0.000,0.000,0.000,0.000,0.000,0.000,0.00,0.00,0.00,0.0,0.0,
681,1768209687803,137951,0.00,0.00,32.71,0.00,0.00,0.00,0.00,0.00,0,0,0,0,0.0000,0.0000,0.00,0.00,0.00,0.000,0.000,0.000,0.000,0.000,0.000,0.00,0.00,0.00,0.0,0.0,
682,1768209688003,138151,12.00,0.00,33.17,0.00,0.00,0.00,0.00,0.00,0,0,0,0,0.0000,0.0000,0.00,0.00,0.00,0.000,0.000,0.000,0.000,0.000,0.000,0.00,0.00,0.00,0.0,0.0,
683,1768209689203,138351,12.00,0.00,32.62,0.00,0.00,0.00,0.00,0.00,0,0,0,0,0.0000,0.0000,0.00,0.00,0.00,0.000,0.000,0.000,0.000,0.000,0.000,0.00,0.00,0.00,0.0,0.0,
684,1768209689403,138551,0.00,0.00,32.67,0.00,0.00,0.00,0.00,0.00,0,0,0,0,0.0000,0.0000,0.00,0.00,0.00,0.000,0.000,0.000,0.000,0.000,0.000,0.00,0.00,0.00,0.0,0.0,
685,1768209689603,138751,0.00,0.00,33.04,0.05,0.00,0.00,0.00,0.00,0,0,0,0,0.0000,0.0000,0.00,0.00,0.00,0.000,0.000,0.000,0.000,0.000,0.000,0.00,0.00,0.00,0.0,0.0,
686,1768209689803,138951,0.00,0.00,33.21,0.00,0.00,0.00,0.00,0.00,0,0,0,0,0.0000,0.0000,0.00,0.00,0.00,0.000,0.000,0.000,0.000,0.000,0.000,0.00,0.00,0.00,0.0,0.0,
687,1768209690003,139151,0.00,0.00,33.26,0.00,0.00,0.00,0.00,0.00,0,0,0,0,0.0000,0.0000,0.00,0.00,0.00,0.000,0.000,0.000,0.000,0.000,0.000,0.00,0.00,0.00,0.0,0.0,
688,1768209691203,139351,0.00,0.00,32.62,0.00,0.00,0.00,0.00,0.00,0,0,0,0,0.0000,0.0000,0.00,0.00,0.00,0.000,0.000,0.000,0.000,0.000,0.000,0.00,0.00,0.00,0.0,0.0,
689,1768209691403,139551,0.00,0.00,32.73,0.00,0.00,0.00,0.00,0.00,0,0,0,0,0.0000,0.0000,0.00,0.00,0.00,0.000,0.000,0.000,0.000,0.000,0.000,0.00,0.00,0.00,0.0,0.0,
690,1768209691603,139751,0.00,0.00,32.62,0.00,0.00,0.00,0.00,0.00,0,0,0,0,0.0000,0.0000,0.00,0.00,0.00,0.000,0.000,0.000,0.000,0.000,0.000,0.00,0.00,0.00,0.0,0.0,
691,1768209691803,139951,0.00,0.00,32.95,0.07,0.00,0.00,0.00,0.00,0,0,0,0,0.0000,0.0000,0.00,0.00,0.00,0.000,0.000,0.000,0.000,0.000,0.000,0.00,0.00,0.00,0.0,0.0,
692,1768209692003,140151,0.00,0.00,32.95,0.13,0.00,0.00,0.00,0.00,0,0,0,0,0.0000,0.0000,0.00,0.00,0.00,0.000,0.000,0.000,0.000,0.000,0.000,0.00,0.00,0.00,0.0,0.0,
693,1768209693203,140351,0.00,0.00,32.58,0.00,0.00,0.00,0.00,0.00,0,0,0,0,0.0000,0.0000,0.00,0.00,0.00,0.000,0.000,0.000,0.000,0.000,0.000,0.00,0.00,0.00,0.0,0.0,
694,1768209693403,140551,0.00,0.00,32.47,0.00,0.00,0.00,0.00,0.00,0,0,0,0,0.0000,0.0000,0.00,0.00,0.00,0.000,0.000,0.000,0.000,0.000,0.000,0.00,0.00,0.00,0.0,0.0,
695,1768209693603,140751,0.00,0.00,32.80,0.00,0.00,0.00,0.00,0.00,0,0,0,0,0.0000,0.0000,0.00,0.00,0.00,0.000,0.000,0.000,0.000,0.000,0.000,0.00,0.00,0.00,0.0,0.0,
696,1768209693803,140951,0.00,0.00,32.66,0.00,0.00,0.00,0.00,0.00,0,0,0,0,0.0000,0.0000,0.00,0.00,0.00,0.000,0.000,0.000,0.000,0.000,0.000,0.00,0.00,0.00,0.0,0.0,
697,1768209694003,141151,0.00,0.00,32.80,0.00,0.00,0.00,0.00,0.00,0,0,0,0,0.0000,0.0000,0.00,0.00,0.00,0.000,0.000,0.000,0.000,0.000,0.000,0.00,0.00,0.00,0.0,0.0,
698,1768209695203,141351,0.00,0.00,33.10,0.00,0.00,0.00,0.00,0.00,0,0,0,0,0.0000,0.0000,0.00,0.00,0.00,0.000,0.000,0.000,0.000,0.000,0.000,0.00,0.00,0.00,0.0,0.0,
699,1768209695403,141551,0.00,0.00,32.29,0.51,0.00,0.00,0.00,0.00,0,0,0,0,0.0000,0.0000,0.00,0.00,0.00,0.000,0.000,0.000,0.000,0.000,0.000,0.00,0.00,0.00,0.0,0.0,
700,1768209695603,141751,0.00,0.00,33.02,0.00,0.00,0.00,0.00,0.00,0,0,0,0,0.0000,0.0000,0.00,0.00,0.00,0.000,0.000,0.000,0.000,0.000,0.000,0.00,0.00,0.00,0.0,0.0,
701,1768209695803,141951,0.00,0.00,32.64,0.00,0.00,0.00,0.00,0.00,0,0,0,0,0.0000,0.0000,0.00,0.00,0.00,0.000,0.000,0.000,0.000,0.000,0.000,0.00,0.00,0.00,0.0,0.0,
702,1768209696003,142151,0.00,0.00,32.51,0.00,0.00,0.00,0.00,0.00,0,0,0,0,0.0000,0.0000,0.00,0.00,0.00,0.000,0.000,0.000,0.000,0.000,0.000,0.00,0.00,0.00,0.0,0.0,
703,1768209697203,142351,0.00,0.00,32.69,0.00,0.00,0.00,0.00,0.00,0,0,0,0,0.0000,0.0000,0.00,0.00,0.00,0.000,0.000,0.000,0.000,0.000,0.000,0.00,0.00,0.00,0.0,0.0,
704,1768209697403,142551,0.00,0.00,32.62,0.00,0.00,0.00,0.00,0.00,0,0,0,0,0.0000,0.0000,0.00,0.00,0.00,0.000,0.000,0.000,0.000,0.000,0.000,0.00,0.00,0.00,0.0,0.0,
705,1768209697603,142751,0.00,0.00,33.02,0.02,0.00,0.00,0.00,0.00,0,0,0,0,0.0000,0.0000,0.00,0.00,0.00,0.000,0.000,0.000,0.000,0.000,0.000,0.00,0.00,0.00,0.0,0.0,
706,1768209697803,142951,0.00,0.00,32.80,0.16,0.00,0.00,0.00,0.00,0,0,0,0,0.0000,0.0000,0.00,0.00,0.00,0.000,0.000,0.000,0.000,0.000,0.000,0.00,0.00,0.00,0.0,0.0,
707,1768209698003,143151,0.00,0.00,32.69,0.07,0.00,0.00,0.00,0.00,0,0,0,0,0.0000,0.0000,0.00,0.00,0.00,0.000,0.000,0.000,0.000,0.000,0.000,0.00,0.00,0.00,0.0,0.0,
708,1768209699203,143351,0.00,0.00,32.80,0.00,0.00,0.00,0.00,0.00,0,0,0,0,0.0000,0.0000,0.00,0.00,0.00,0.000,0.000,0.000,0.000,0.000,0.000,0.00,0.00,0.00,0.0,0.0,
709,1768209699403,143551,0.00,0.00,32.69,0.11,0.00,0.00,0.00,0.00,0,0,0,0,0.0000,0.0000,0.00,0.00,0.00,0.000,0.000,0.000,0.000,0.000,0.000,0.00,0.00,0.00,0.0,0.0,
710,1768209699603,143751,12.00,0.00,32.62,0.07,0.00,0.00,0.00,0.00,0,0,0,0,0.0000,0.0000,0.00,0.00,0.00,0.000,0.000,0.000,0.000,0.000,0.000,0.00,0.00,0.00,0.0,0.0,
711,1768209699803,143951,0.00,0.00,32.51,0.00,0.00,0.00,0.00,0.00,0,0,0,0,0.0000,0.0000,0.00,0.00,0.00,0.000,0.000,0.000,0.000,0.000,0.000,0.00,0.00,0.00,0.0,0.0,
712,1768209700003,144151,0.00,0.00,32.58,0.00,0.00,0.00,0.00,0.00,0,0,0,0,0.0000,0.0000,0.00,0.00,0.00,0.000,0.000,0.000,0.000,0.000,0.000,0.00,0.00,0.00,0.0,0.0,
713,1768209701203,144351,0.00,0.00,32.40,0.00,0.00,0.00,0.00,0.00,0,0,0,0,0.0000,0.0000,0.00,0.00,0.00,0.000,0.000,0.000,0.000,0.000,0.000,0.00,0.00,0.00,0.0,0.0,
714,1768209701403,144551,0.00,0.00,32.77,0.00,0.00,0.00,0.00,0.00,0,0,0,0,0.0000,0.0000,0.00,0.00,0.00,0.000,0.000,0.000,0.000,0.000,0.000,0.00,0.00,0.00,0.0,0.0,
715,1768209701603,144751,0.00,0.00,32.69,0.00,0.00,0.00,0.00,0.00,0,0,0,0,0.0000,0.0000,0.00,0.00,0.00,0.000,0.000,0.000,0.000,0.000,0.000,0.00,0.00,0.00,0.0,0.0,
716,1768209701803,144951,12.00,0.00,32.69,0.00,0.00,0.00,0.00,0.00,0,0,0,0,0.0000,0.0000,0.00,0.00,0.00,0.000,0.000,0.000,0.000,0.000,0.000,0.00,0.00,0.00,0.0,0.0,
717,1768209702003,145151,0.00,0.00,33.39,0.00,0.00,0.00,0.00,0.00,0,0,0,0,0.0000,0.0000,0.00,0.00,0.00,0.000,0.000,0.000,0.000,0.000,0.000,0.00,0.00,0.00,0.0,0.0,
718,1768209703203,145351,0.00,0.00,32.99,0.00,0.00,0.00,0.00,0.00,0,0,0,0,0.0000,0.0000,0.00,0.00,0.00,0.000,0.000,0.000,0.000,0.000,0.000,0.00,0.00,0.00,0.0,0.0,
719,1768209703403,145551,0.00,0.00,32.75,0.00,0.00,0.00,0.00,0.00,0,0,0,0,0.0000,0.0000,0.00,0.00,0.00,0.000,0.000,0.000,0.000,0.000,0.000,0.00,0.00,0.00,0.0,0.0,
720,1768209703603,145751,0.00,0.00,33.17,0.00,0.00,0.00,0.00,0.00,0,0,0,0,0.0000,0.0000,0.00,0.00,0.00,0.000,0.000,0.000,0.000,0.000,0.000,0.00,0.00,0.00,0.0,0.0,
721,1768209703803,145951,0.00,0.00,32.95,0.09,0.00,0.00,0.00,0.00,0,0,0,0,0.0000,0.0000,0.00,0.00,0.00,0.000,0.000,0.000,0.000,0.000,0.000,0.00,0.00,0.00,0.0,0.0,
722,1768209704003,146151,0.00,0.00,32.91,0.00,0.00,0.00,0.00,0.00,0,0,0,0,0.0000,0.0000,0.00,0.00,0.00,0.000,0.000,0.000,0.000,0.000,0.000,0.00,0.00,0.00,0.0,0.0,
723,1768209705203,146351,0.00,0.00,32.49,0.00,0.00,0.00,0.00,0.00,0,0,0,0,0.0000,0.0000,0.00,0.00,0.00,0.000,0.000,0.000,0.000,0.000,0.000,0.00,0.00,0.00,0.0,0.0,
724,1768209705403,146551,0.00,0.00,32.73,0.24,0.00,0.00,0.00,0.00,0,0,0,0,0.0000,0.0000,0.00,0.00,0.00,0.000,0.000,0.000,0.000,0.000,0.000,0.00,0.00,0.00,0.0,0.0,
725,1768209705603,146751,0.00,0.00,32.80,0.00,0.00,0.00,0.00,0.00,0,0,0,0,0.0000,0.0000,0.00,0.00,0.00,0.000,0.000,0.000,0.000,0.000,0.000,0.00,0.00,0.00,0.0,0.0,
726,1768209705803,146951,0.00,0.00,32.91,0.31,0.00,0.00,0.00,0.00,0,0,0,0,0.0000,0.0000,0.00,0.00,0.00,0.000,0.000,0.000,0.000,0.000,0.000,0.00,0.00,0.00,0.0,0.0,
727,1768209706003,147151,0.00,0.00,32.40,0.00,0.00,0.00,0.00,0.00,0,0,0,0,0.0000,0.0000,0.00,0.00,0.00,0.000,0.000,0.000,0.000,0.000,0.000,0.00,0.00,0.00,0.0,0.0,
728,1768209707203,147351,12.00,0.00,32.62,0.20,0.00,0.00,0.00,0.00,0,0,0,0,0.0000,0.0000,0.00,0.00,0.00,0.000,0.000,0.000,0.000,0.000,0.000,0.00,0.00,0.00,0.0,0.0,
729,1768209707403,147551,0.00,0.00,33.10,0.00,0.00,0.00,0.00,0.00,0,0,0,0,0.0000,0.0000,0.00,0.00,0.00,0.000,0.000,0.000,0.000,0.000,0.000,0.00,0.00,0.00,0.0,0.0,
730,1768209707603,147751,0.00,0.00,32.93,0.00,0.00,0.00,0.00,0.00,0,0,0,0,0.0000,0.0000,0.00,0.00,0.00,0.000,0.000,0.000,0.000,0.000,0.000,0.00,0.00,0.00,0.0,0.0,
731,1768209707803,147951,0.00,0.00,32.62,0.00,0.00,0.00,0.00,0.00,0,0,0,0,0.0000,0.0000,0.00,0.00,0.00,0.000,0.000,0.000,0.000,0.000,0.000,0.00,0.00,0.00,0.0,0.0,
732,1768209708003,148151,0.00,0.00,32.80,0.00,0.00,0.00,0.00,0.00,0,0,0,0,0.0000,0.0000,0.00,0.00,0.00,0.000,0.000,0.000,0.000,0.000,0.000,0.00,0.00,0.00,0.0,0.0,
733,1768209709203,148351,0.00,0.00,33.13,0.00,0.00,0.00,0.00,0.00,0,0,0,0,0.0000,0.0000,0.00,0.00,0.00,0.000,0.000,0.000,0.000,0.000,0.000,0.00,0.00,0.00,0.0,0.0,
